ref_accel_x (m/s^2),ref_accel_y (m/s^2),ref_accel_z (m/s^2)
0.000000000000000000e+00,-7.658507816907998656e-04,-9.795698020921706828e+00
0.000000000000000000e+00,-7.658507952854978242e-04,-9.795698021433350888e+00
0.000000000000000000e+00,-7.658508088801953490e-04,-9.795698021944998501e+00
0.000000000000000000e+00,-7.658508224748930907e-04,-9.795698022456646115e+00
0.000000000000000000e+00,-7.658508360695908323e-04,-9.795698022968293728e+00
0.000000000000000000e+00,-7.658508496642883571e-04,-9.795698023479941341e+00
0.000000000000000000e+00,-7.658508632589855567e-04,-9.795698023991588954e+00
0.000000000000000000e+00,-7.658508768536827563e-04,-9.795698024503236567e+00
0.000000000000000000e+00,-7.658508904483799559e-04,-9.795698025014885957e+00
0.000000000000000000e+00,-7.658509040430769386e-04,-9.795698025526533570e+00
0.000000000000000000e+00,-7.658509176377740297e-04,-9.795698026038177630e+00
0.000000000000000000e+00,-7.658509312324709040e-04,-9.795698026549827020e+00
0.000000000000000000e+00,-7.658509448271676699e-04,-9.795698027061474633e+00
0.000000000000000000e+00,-7.658509584218642190e-04,-9.795698027573122246e+00
0.000000000000000000e+00,-7.658509720165607680e-04,-9.795698028084768083e+00
0.000000000000000000e+00,-7.658509856112573171e-04,-9.795698028596415696e+00
0.000000000000000000e+00,-7.658509992059534324e-04,-9.795698029108063309e+00
0.000000000000000000e+00,-7.658510128006497646e-04,-9.795698029619710923e+00
0.000000000000000000e+00,-7.658510263953458800e-04,-9.795698030131360312e+00
0.000000000000000000e+00,-7.658510399900419954e-04,-9.795698030643007925e+00
0.000000000000000000e+00,-7.658510535847378939e-04,-9.795698031154655538e+00
0.000000000000000000e+00,-7.658510671794339008e-04,-9.795698031666299599e+00
0.000000000000000000e+00,-7.658510807741295825e-04,-9.795698032177948988e+00
0.000000000000000000e+00,-7.658510943688251558e-04,-9.795698032689596602e+00
0.000000000000000000e+00,-7.658511079635207290e-04,-9.795698033201244215e+00
0.000000000000000000e+00,-7.658511215582163023e-04,-9.795698033712893604e+00
0.000000000000000000e+00,-7.658511351529115503e-04,-9.795698034224539441e+00
0.000000000000000000e+00,-7.658511487476069067e-04,-9.795698034736188831e+00
0.000000000000000000e+00,-7.658511623423018295e-04,-9.795698035247836444e+00
0.000000000000000000e+00,-7.658511759369969691e-04,-9.795698035759484057e+00
0.000000000000000000e+00,-7.658511895316920002e-04,-9.795698036271131670e+00
0.000000000000000000e+00,-7.658512031263867061e-04,-9.795698036782777507e+00
0.000000000000000000e+00,-7.658512167210816289e-04,-9.795698037294428673e+00
0.000000000000000000e+00,-7.658512303157763348e-04,-9.795698037806074510e+00
0.000000000000000000e+00,-7.658512439104707154e-04,-9.795698038317720346e+00
0.000000000000000000e+00,-7.658512575051653129e-04,-9.795698038829367960e+00
0.000000000000000000e+00,-7.658512710998596935e-04,-9.795698039341015573e+00
0.000000000000000000e+00,-7.658512846945539658e-04,-9.795698039852663186e+00
0.000000000000000000e+00,-7.658512982892482380e-04,-9.795698040364312575e+00
0.000000000000000000e+00,-7.658513118839422934e-04,-9.795698040875958412e+00
0.000000000000000000e+00,-7.658513254786363487e-04,-9.795698041387607802e+00
0.000000000000000000e+00,-7.658513390733300789e-04,-9.795698041899255415e+00
0.000000000000000000e+00,-7.658513526680240258e-04,-9.795698042410901252e+00
0.000000000000000000e+00,-7.658513662627176475e-04,-9.795698042922550641e+00
0.000000000000000000e+00,-7.658513798574110524e-04,-9.795698043434196478e+00
0.000000000000000000e+00,-7.658513934521045657e-04,-9.795698043945845868e+00
0.000000000000000000e+00,-7.658514070467978621e-04,-9.795698044457493481e+00
0.000000000000000000e+00,-7.658514206414911586e-04,-9.795698044969139318e+00
0.000000000000000000e+00,-7.658514342361844550e-04,-9.795698045480790483e+00
0.000000000000000000e+00,-7.658514478308775346e-04,-9.795698045992436320e+00
0.000000000000000000e+00,-7.658514614255703973e-04,-9.795698046504085710e+00
0.000000000000000000e+00,-7.658514750202632601e-04,-9.795698047015733323e+00
0.000000000000000000e+00,-7.658514886149559060e-04,-9.795698047527380936e+00
0.000000000000000000e+00,-7.658515022096485519e-04,-9.795698048039028549e+00
0.000000000000000000e+00,-7.658515158043413063e-04,-9.795698048550674386e+00
0.000000000000000000e+00,-7.658515293990338438e-04,-9.795698049062323776e+00
0.000000000000000000e+00,-7.658515429937262729e-04,-9.795698049573969612e+00
0.000000000000000000e+00,-7.658515565884184851e-04,-9.795698050085615449e+00
0.000000000000000000e+00,-7.658515701831105889e-04,-9.795698050597266615e+00
0.000000000000000000e+00,-7.658515837778026927e-04,-9.795698051108912452e+00
0.000000000000000000e+00,-7.658515973724946881e-04,-9.795698051620561841e+00
0.000000000000000000e+00,-7.658516109671864667e-04,-9.795698052132209455e+00
0.000000000000000000e+00,-7.658516245618782452e-04,-9.795698052643858844e+00
0.000000000000000000e+00,-7.658516381565699154e-04,-9.795698053155504681e+00
0.000000000000000000e+00,-7.658516517512615855e-04,-9.795698053667152294e+00
0.000000000000000000e+00,-7.658516653459530388e-04,-9.795698054178801684e+00
0.000000000000000000e+00,-7.658516789406443837e-04,-9.795698054690447520e+00
0.000000000000000000e+00,-7.658516925353356201e-04,-9.795698055202098686e+00
0.000000000000000000e+00,-7.658517061300269650e-04,-9.795698055713744523e+00
0.000000000000000000e+00,-7.658517197247179846e-04,-9.795698056225390360e+00
0.000000000000000000e+00,-7.658517333194090042e-04,-9.795698056737039749e+00
0.000000000000000000e+00,-7.658517469140999154e-04,-9.795698057248687363e+00
0.000000000000000000e+00,-7.658517605087906098e-04,-9.795698057760336752e+00
0.000000000000000000e+00,-7.658517741034813042e-04,-9.795698058271984365e+00
0.000000000000000000e+00,-7.658517876981719985e-04,-9.795698058783631978e+00
0.000000000000000000e+00,-7.658518012928624760e-04,-9.795698059295277815e+00
0.000000000000000000e+00,-7.658518148875528451e-04,-9.795698059806927205e+00
0.000000000000000000e+00,-7.658518284822429974e-04,-9.795698060318574818e+00
0.000000000000000000e+00,-7.658518420769331496e-04,-9.795698060830220655e+00
0.000000000000000000e+00,-7.658518556716233019e-04,-9.795698061341871821e+00
0.000000000000000000e+00,-7.658518692663131289e-04,-9.795698061853517657e+00
0.000000000000000000e+00,-7.658518828610031727e-04,-9.795698062365167047e+00
0.000000000000000000e+00,-7.658518964556929997e-04,-9.795698062876814660e+00
0.000000000000000000e+00,-7.658519100503826098e-04,-9.795698063388460497e+00
0.000000000000000000e+00,-7.658519236450722200e-04,-9.795698063900109887e+00
0.000000000000000000e+00,-7.658519372397618302e-04,-9.795698064411757500e+00
0.000000000000000000e+00,-7.658519508344511150e-04,-9.795698064923406889e+00
0.000000000000000000e+00,-7.658519644291403999e-04,-9.795698065435054502e+00
0.000000000000000000e+00,-7.658519780238296848e-04,-9.795698065946703892e+00
0.000000000000000000e+00,-7.658519916185185360e-04,-9.795698066458351505e+00
0.000000000000000000e+00,-7.658520052132078209e-04,-9.795698066969995566e+00
0.000000000000000000e+00,-7.658520188078966721e-04,-9.795698067481648508e+00
0.000000000000000000e+00,-7.658520324025854149e-04,-9.795698067993292568e+00
0.000000000000000000e+00,-7.658520459972740493e-04,-9.795698068504940181e+00
0.000000000000000000e+00,-7.658520595919625753e-04,-9.795698069016587795e+00
0.000000000000000000e+00,-7.658520731866512096e-04,-9.795698069528237184e+00
0.000000000000000000e+00,-7.658520867813396272e-04,-9.795698070039884797e+00
0.000000000000000000e+00,-7.658521003760278278e-04,-9.795698070551534187e+00
0.000000000000000000e+00,-7.658521139707161370e-04,-9.795698071063181800e+00
0.000000000000000000e+00,-7.658521275654041208e-04,-9.795698071574829413e+00
0.000000000000000000e+00,2.610335356579892574e-01,-9.795698072086477026e+00
0.000000000000000000e+00,4.966529828517074474e-01,-9.795697843580754238e+00
0.000000000000000000e+00,7.087104835114630408e-01,-9.795697408794449501e+00
0.000000000000000000e+00,8.995622322883066735e-01,-9.795696788059823135e+00
0.000000000000000000e+00,1.071328804367387200e+00,-9.795695999575102064e+00
0.000000000000000000e+00,1.225918717414729242e+00,-9.795695059641776226e+00
0.000000000000000000e+00,1.365049637329296406e+00,-9.795693982873240557e+00
0.000000000000000000e+00,1.490267463419816751e+00,-9.795692782378617736e+00
0.000000000000000000e+00,1.602963505063899285e+00,-9.795691469924971528e+00
0.000000000000000000e+00,1.704389940701217521e+00,-9.795690056080761821e+00
0.000000000000000000e+00,1.795673730927363820e+00,-9.795688550342873668e+00
0.000000000000000000e+00,1.877829140278295172e+00,-9.795686961249359115e+00
0.000000000000000000e+00,1.951769006836337805e+00,-9.795685296479550885e+00
0.000000000000000000e+00,2.018314884875568538e+00,-9.795683562943164446e+00
0.000000000000000000e+00,2.078206173242665322e+00,-9.795681766859688722e+00
0.000000000000000000e+00,2.132108330899656234e+00,-9.795679913829149044e+00
0.000000000000000000e+00,2.180620270912397629e+00,-9.795678008895377431e+00
0.000000000000000000e+00,2.224281015040196152e+00,-9.795676056602461657e+00
0.000000000000000000e+00,2.263575682866470373e+00,-9.795674061045357206e+00
0.000000000000000000e+00,2.298940882016339504e+00,-9.795672025915123982e+00
0.000000000000000000e+00,2.330769559352460440e+00,-9.795669954539508950e+00
0.000000000000000000e+00,2.359415367051266088e+00,-9.795667849919341919e+00
0.000000000000000000e+00,2.385196592071594957e+00,-9.795665714761160103e+00
0.000000000000000000e+00,2.408399692676446602e+00,-9.795663551506553546e+00
0.000000000000000000e+00,2.429282481302562857e+00,-9.795661362358487168e+00
0.000000000000000000e+00,2.448076989143056270e+00,-9.795659149304974278e+00
0.000000000000000000e+00,2.464992044271765881e+00,-9.795656914140366212e+00
0.000000000000000000e+00,2.480215591955186927e+00,-9.795654658484503230e+00
0.000000000000000000e+00,2.493916782933203180e+00,-9.795652383799930973e+00
0.000000000000000000e+00,2.506247852871745341e+00,-9.795650091407429372e+00
0.000000000000000000e+00,2.517345813870183413e+00,-9.795647782499965928e+00
0.000000000000000000e+00,2.527333976817982553e+00,-9.795645458155272323e+00
0.000000000000000000e+00,2.536323321515694840e+00,-9.795643119347181127e+00
0.000000000000000000e+00,2.544413729783844502e+00,-9.795640766955829193e+00
0.000000000000000000e+00,2.551695095260928525e+00,-9.795638401776852078e+00
0.000000000000000000e+00,2.558248322221626125e+00,-9.795636024529690289e+00
0.000000000000000000e+00,2.564146224513170758e+00,-9.795633635865049982e+00
0.000000000000000000e+00,2.569454334598095357e+00,-9.795631236371642458e+00
0.000000000000000000e+00,2.574231631692706745e+00,-9.795628826582261084e+00
0.000000000000000000e+00,2.578531197091700644e+00,-9.795626406979268452e+00
0.000000000000000000e+00,2.582400803960327895e+00,-9.795623977999522225e+00
0.000000000000000000e+00,2.585883448147332953e+00,-9.795621540038842667e+00
0.000000000000000000e+00,2.589017825916605453e+00,-9.795619093456028992e+00
0.000000000000000000e+00,2.591838763905665921e+00,-9.795616638576476021e+00
0.000000000000000000e+00,2.594377606088305477e+00,-9.795614175695460446e+00
0.000000000000000000e+00,2.596662562040950029e+00,-9.795611705081073595e+00
0.000000000000000000e+00,2.598719020382402434e+00,-9.795609226976891293e+00
0.000000000000000000e+00,2.600569830869605248e+00,-9.795606741604375500e+00
0.000000000000000000e+00,2.602235558283822137e+00,-9.795604249165043242e+00
0.000000000000000000e+00,2.603734710928206741e+00,-9.795601749842401063e+00
0.000000000000000000e+00,2.605083946275615681e+00,-9.795599243803740919e+00
0.000000000000000000e+00,2.606298256051637452e+00,-9.795596731201692720e+00
0.000000000000000000e+00,2.607391132809313117e+00,-9.795594212175693372e+00
0.000000000000000000e+00,2.608374719846402900e+00,-9.795591686853263980e+00
0.000000000000000000e+00,2.609259946130900065e+00,-9.795589155351171584e+00
0.000000000000000000e+00,2.610056647734018576e+00,-9.795586617776505634e+00
0.000000000000000000e+00,2.610773677119865965e+00,-9.795584074227608795e+00
0.000000000000000000e+00,2.611419001506151805e+00,-9.795581524794943817e+00
0.000000000000000000e+00,2.611999791388832648e+00,-9.795578969561864469e+00
0.000000000000000000e+00,2.612522500214283561e+00,-9.795576408605313645e+00
0.000000000000000000e+00,2.612992936084260087e+00,-9.795573841996464637e+00
0.000000000000000000e+00,2.613416326290353808e+00,-9.795571269801273573e+00
0.000000000000000000e+00,2.613797375395011890e+00,-9.795568692080992790e+00
0.000000000000000000e+00,2.614140317504454636e+00,-9.795566108892654000e+00
0.000000000000000000e+00,2.614448963314293106e+00,-9.795563520289462645e+00
0.000000000000000000e+00,2.614726742450592223e+00,-9.795560926321185136e+00
0.000000000000000000e+00,2.614976741576828356e+00,-9.795558327034497026e+00
0.000000000000000000e+00,2.615201738690140054e+00,-9.795555722473272553e+00
0.000000000000000000e+00,2.615404233987970173e+00,-9.795553112678861751e+00
0.000000000000000000e+00,2.615586477648030872e+00,-9.795550497690362235e+00
0.000000000000000000e+00,2.615750494830280104e+00,-9.795547877544821702e+00
0.000000000000000000e+00,2.615898108178691395e+00,-9.795545252277452875e+00
0.000000000000000000e+00,2.616030958072856905e+00,-9.795542621921805804e+00
0.000000000000000000e+00,2.616150520854425565e+00,-9.795539986509950836e+00
0.000000000000000000e+00,2.616258125230894294e+00,-9.795537346072608287e+00
0.000000000000000000e+00,2.616354967039027368e+00,-9.795534700639295878e+00
0.000000000000000000e+00,2.616442122531926096e+00,-9.795532050238449528e+00
0.000000000000000000e+00,2.616520560337395995e+00,-9.795529394897519282e+00
0.000000000000000000e+00,2.616591152220477667e+00,-9.795526734643086542e+00
0.000000000000000000e+00,2.616654682769721685e+00,-9.795524069500942232e+00
0.000000000000000000e+00,2.616711858114839639e+00,-9.795521399496173842e+00
0.000000000000000000e+00,2.616763313772585420e+00,-9.795518724653229370e+00
0.000000000000000000e+00,2.616809621708052980e+00,-9.795516044995983052e+00
0.000000000000000000e+00,2.616851296689841178e+00,-9.795513360547804638e+00
0.000000000000000000e+00,2.616888802009705195e+00,-9.795510671331609132e+00
0.000000000000000000e+00,2.616922554630238373e+00,-9.795507977369894093e+00
0.000000000000000000e+00,2.616952929817791151e+00,-9.795505278684794703e+00
0.000000000000000000e+00,2.616980265312091269e+00,-9.795502575298117520e+00
0.000000000000000000e+00,2.617004865078910392e+00,-9.795499867231374225e+00
0.000000000000000000e+00,2.617027002687458026e+00,-9.795497154505820703e+00
0.000000000000000000e+00,2.617046924350037607e+00,-9.795494437142480137e+00
0.000000000000000000e+00,2.617064851657735947e+00,-9.795491715162166102e+00
0.000000000000000000e+00,2.617080984042549296e+00,-9.795488988585510981e+00
0.000000000000000000e+00,2.617095500993285917e+00,-9.795486257432985511e+00
0.000000000000000000e+00,2.617108564049889896e+00,-9.795483521724911213e+00
0.000000000000000000e+00,2.617120318598327167e+00,-9.795480781481495924e+00
0.000000000000000000e+00,2.617130895485977327e+00,-9.795478036722819581e+00
0.000000000000000000e+00,2.617140412475504441e+00,-9.795475287468883963e+00
0.000000000000000000e+00,2.617148975553317491e+00,-9.795472533739593146e+00
0.000000000000000000e+00,2.617156680107195932e+00,-9.795469775554776604e+00
0.000000000000000000e+00,2.617163611986164540e+00,-9.795467012934208739e+00
0.000000000000000000e+00,2.617169848454354852e+00,-9.795464245897605338e+00
0.000000000000000000e+00,2.617175459049501995e+00,-9.795461474464634222e+00
0.000000000000000000e+00,2.617180506355585301e+00,-9.795458698654927687e+00
0.000000000000000000e+00,2.617185046698197404e+00,-9.795455918488084279e+00
0.000000000000000000e+00,2.617189130770388950e+00,-9.795453133983674121e+00
0.000000000000000000e+00,2.617192804195920264e+00,-9.795450345161251349e+00
0.000000000000000000e+00,2.617196108036192737e+00,-9.795447552040354111e+00
0.000000000000000000e+00,2.617199079246481652e+00,-9.795444754640504570e+00
0.000000000000000000e+00,2.617201751086550843e+00,-9.795441952981216005e+00
0.000000000000000000e+00,2.617204153490201080e+00,-9.795439147082005249e+00
0.000000000000000000e+00,2.617206313397870687e+00,-9.795436336962378476e+00
0.000000000000000000e+00,2.617208255055970767e+00,-9.795433522641854296e+00
0.000000000000000000e+00,2.617210000286281257e+00,-9.795430704139947764e+00
0.000000000000000000e+00,2.617211568728427640e+00,-9.795427881476181042e+00
0.000000000000000000e+00,2.617212978058080619e+00,-9.795425054670085174e+00
0.000000000000000000e+00,2.617214244183365235e+00,-9.795422223741208967e+00
0.000000000000000000e+00,2.617215381421605258e+00,-9.795419388709099451e+00
0.000000000000000000e+00,2.617216402658411489e+00,-9.795416549593332078e+00
0.000000000000000000e+00,2.617217319490845906e+00,-9.795413706413484078e+00
0.000000000000000000e+00,2.617218142356281696e+00,-9.795410859189157549e+00
0.000000000000000000e+00,2.617218880648370938e+00,-9.795408007939970574e+00
0.000000000000000000e+00,2.617219542821415779e+00,-9.795405152685553674e+00
0.000000000000000000e+00,2.617220136484301296e+00,-9.795402293445562236e+00
0.000000000000000000e+00,2.617220668485044754e+00,-9.795399430239662308e+00
0.000000000000000000e+00,2.617221144986871195e+00,-9.795396563087553687e+00
0.000000000000000000e+00,2.617221571536705316e+00,-9.795393692008948605e+00
0.000000000000000000e+00,2.617221953126789735e+00,-9.795390817023578833e+00
0.000000000000000000e+00,2.617222294250161951e+00,-9.795387938151201013e+00
0.000000000000000000e+00,2.617222598950570855e+00,-9.795385055411591324e+00
0.000000000000000000e+00,2.617222870867405682e+00,-9.795382168824550817e+00
0.000000000000000000e+00,2.617223113276132551e+00,-9.795379278409903634e+00
0.000000000000000000e+00,2.617223329124688469e+00,-9.795376384187493457e+00
0.000000000000000000e+00,2.617223521066229797e+00,-9.795373486177187061e+00
0.000000000000000000e+00,2.617223691488615778e+00,-9.795370584398879643e+00
0.000000000000000000e+00,2.617223842540933987e+00,-9.795367678872484163e+00
0.000000000000000000e+00,2.617223976157379894e+00,-9.795364769617936673e+00
0.000000000000000000e+00,2.617224094078745900e+00,-9.795361856655199873e+00
0.000000000000000000e+00,2.617224197871759639e+00,-9.795358940004264880e+00
0.000000000000000000e+00,2.617224288946494060e+00,-9.795356019685133475e+00
0.000000000000000000e+00,2.617224368572028226e+00,-9.795353095717842962e+00
0.000000000000000000e+00,2.617224437890551592e+00,-9.795350168122446632e+00
0.000000000000000000e+00,2.617224497930051186e+00,-9.795347236919022649e+00
0.000000000000000000e+00,2.617224549615728701e+00,-9.795344302127681146e+00
0.000000000000000000e+00,2.617224593780283382e+00,-9.795341363768542919e+00
0.000000000000000000e+00,2.617224631173162397e+00,-9.795338421861758960e+00
0.000000000000000000e+00,2.617224662468879526e+00,-9.795335476427505128e+00
0.000000000000000000e+00,2.617224688274518485e+00,-9.795332527485978602e+00
0.000000000000000000e+00,2.617224709136467542e+00,-9.795329575057404980e+00
0.000000000000000000e+00,2.617224725546494657e+00,-9.795326619162018744e+00
0.000000000000000000e+00,2.617224737947204893e+00,-9.795323659820095230e+00
0.000000000000000000e+00,2.617224746736959595e+00,-9.795320697051920433e+00
0.000000000000000000e+00,2.617224752274303068e+00,-9.795317730877812323e+00
0.000000000000000000e+00,2.617224754881935844e+00,-9.795314761318104857e+00
0.000000000000000000e+00,2.617224754850312252e+00,-9.795311788393155084e+00
0.000000000000000000e+00,2.617224752440849844e+00,-9.795308812123348474e+00
0.000000000000000000e+00,2.617224747888843961e+00,-9.795305832529090040e+00
0.000000000000000000e+00,2.617224741406078525e+00,-9.795302849630806108e+00
0.000000000000000000e+00,2.617224733183173058e+00,-9.795299863448944322e+00
0.000000000000000000e+00,2.617224723391703201e+00,-9.795296874003977194e+00
0.000000000000000000e+00,2.617224712186100977e+00,-9.795293881316403883e+00
0.000000000000000000e+00,2.617224699705374746e+00,-9.795290885406734205e+00
0.000000000000000000e+00,2.617224686074644424e+00,-9.795287886295509949e+00
0.000000000000000000e+00,2.617224671406539027e+00,-9.795284884003290671e+00
0.000000000000000000e+00,2.617224655802437461e+00,-9.795281878550651911e+00
0.000000000000000000e+00,2.617224639353599613e+00,-9.795278869958204737e+00
0.000000000000000000e+00,2.617224622142173995e+00,-9.795275858246574430e+00
0.000000000000000000e+00,2.617224604242110786e+00,-9.795272843436396926e+00
0.000000000000000000e+00,2.617224585719984287e+00,-9.795269825548347242e+00
0.000000000000000000e+00,2.617224566635725669e+00,-9.795266804603111055e+00
0.000000000000000000e+00,2.617224547043289995e+00,-9.795263780621397132e+00
0.000000000000000000e+00,2.617224526991251743e+00,-9.795260753623937333e+00
0.000000000000000000e+00,2.617224506523348371e+00,-9.795257723631475955e+00
0.000000000000000000e+00,2.617224485678956825e+00,-9.795254690664785713e+00
0.000000000000000000e+00,2.617224464493533187e+00,-9.795251654744664194e+00
0.000000000000000000e+00,2.617224442999007028e+00,-9.795248615891912536e+00
0.000000000000000000e+00,2.617224421224129571e+00,-9.795245574127365629e+00
0.000000000000000000e+00,2.617224399194793438e+00,-9.795242529471876125e+00
0.000000000000000000e+00,2.617224376934319974e+00,-9.795239481946316218e+00
0.000000000000000000e+00,2.617224354463713709e+00,-9.795236431571570535e+00
0.000000000000000000e+00,2.617224331801896398e+00,-9.795233378368552124e+00
0.000000000000000000e+00,2.617224308965913071e+00,-9.795230322358190023e+00
0.000000000000000000e+00,2.617224285971124331e+00,-9.795227263561432807e+00
0.000000000000000000e+00,2.617224262831366222e+00,-9.795224201999248592e+00
0.000000000000000000e+00,2.617224239559112320e+00,-9.795221137692625035e+00
0.000000000000000000e+00,2.617224216165603412e+00,-9.795218070662564003e+00
0.000000000000000000e+00,2.617224192660974058e+00,-9.795215000930092231e+00
0.000000000000000000e+00,2.617224169054360949e+00,-9.795211928516247113e+00
0.000000000000000000e+00,2.617224145354005493e+00,-9.795208853442096242e+00
0.000000000000000000e+00,2.617224121567339523e+00,-9.795205775728714315e+00
0.000000000000000000e+00,2.617224097701071894e+00,-9.795202695397197346e+00
0.000000000000000000e+00,2.617224073761254211e+00,-9.795199612468662664e+00
0.000000000000000000e+00,2.617224049753350990e+00,-9.795196526964243589e+00
0.000000000000000000e+00,2.617224025682298283e+00,-9.795193438905087646e+00
0.000000000000000000e+00,2.617224001552553858e+00,-9.795190348312363682e+00
0.000000000000000000e+00,2.617223977368145604e+00,-9.795187255207256527e+00
0.000000000000000000e+00,2.617223953132720382e+00,-9.795184159610968777e+00
0.000000000000000000e+00,2.617223928849569781e+00,-9.795181061544719014e+00
0.000000000000000000e+00,2.617223904521681188e+00,-9.795177961029747138e+00
0.000000000000000000e+00,2.617223880151753779e+00,-9.795174858087301928e+00
0.000000000000000000e+00,2.617223855742237149e+00,-9.795171752738655258e+00
0.000000000000000000e+00,2.617223831295352632e+00,-9.795168645005093211e+00
0.000000000000000000e+00,2.617223806813115061e+00,-9.795165534907914306e+00
0.000000000000000000e+00,2.617223782297355861e+00,-9.795162422468438379e+00
0.000000000000000000e+00,2.617223757749739477e+00,-9.795159307708010132e+00
0.000000000000000000e+00,2.617223733171783362e+00,-9.795156190647963612e+00
0.000000000000000000e+00,2.617223708564867302e+00,-9.795153071309677273e+00
0.000000000000000000e+00,2.617223683930250289e+00,-9.795149949714529569e+00
0.000000000000000000e+00,2.617223659269085623e+00,-9.795146825883914943e+00
0.000000000000000000e+00,2.617223634582424019e+00,-9.795143699839247375e+00
0.000000000000000000e+00,2.617223609871230927e+00,-9.795140571601960389e+00
0.000000000000000000e+00,2.617223585136392749e+00,-9.795137441193485728e+00
0.000000000000000000e+00,2.617223560378722613e+00,-9.795134308635290665e+00
0.000000000000000000e+00,2.617223535598969697e+00,-9.795131173948840697e+00
0.000000000000000000e+00,2.617223510797827668e+00,-9.795128037155629741e+00
0.000000000000000000e+00,2.617223485975934683e+00,-9.795124898277155268e+00
0.000000000000000000e+00,2.617223461133883156e+00,-9.795121757334930734e+00
0.000000000000000000e+00,2.617223436272224646e+00,-9.795118614350489139e+00
0.000000000000000000e+00,2.617223411391472077e+00,-9.795115469345374137e+00
0.000000000000000000e+00,2.617223386492104620e+00,-9.795112322341140043e+00
0.000000000000000000e+00,2.617223361574570362e+00,-9.795109173359364263e+00
0.000000000000000000e+00,2.617223336639288966e+00,-9.795106022421624203e+00
0.000000000000000000e+00,2.617223311686655673e+00,-9.795102869549520364e+00
0.000000000000000000e+00,2.617223286717044850e+00,-9.795099714764667453e+00
0.000000000000000000e+00,2.617223261730808215e+00,-9.795096558088683736e+00
0.000000000000000000e+00,2.617223236728281499e+00,-9.795093399543214119e+00
0.000000000000000000e+00,2.617223211709785780e+00,-9.795090239149903510e+00
0.000000000000000000e+00,2.617223186675621704e+00,-9.795087076930414582e+00
0.000000000000000000e+00,2.617223161626081485e+00,-9.795083912906425994e+00
0.000000000000000000e+00,2.617223136561445784e+00,-9.795080747099625285e+00
0.000000000000000000e+00,2.617223111481981057e+00,-9.795077579531708878e+00
0.000000000000000000e+00,2.617223086387947539e+00,-9.795074410224390959e+00
0.000000000000000000e+00,2.617223061279594365e+00,-9.795071239199394597e+00
0.000000000000000000e+00,2.617223036157164451e+00,-9.795068066478457069e+00
0.000000000000000000e+00,2.617223011020894941e+00,-9.795064892083320984e+00
0.000000000000000000e+00,2.617222985871014096e+00,-9.795061716035748489e+00
0.000000000000000000e+00,2.617222960707745294e+00,-9.795058538357512390e+00
0.000000000000000000e+00,2.617222935531307026e+00,-9.795055359070385492e+00
0.000000000000000000e+00,2.617222910341915565e+00,-9.795052178196169024e+00
0.000000000000000000e+00,2.617222885139778299e+00,-9.795048995756662435e+00
0.000000000000000000e+00,2.617222859925102618e+00,-9.795045811773677613e+00
0.000000000000000000e+00,2.617222834698092804e+00,-9.795042626269037100e+00
0.000000000000000000e+00,2.617222809458948696e+00,-9.795039439264581205e+00
0.000000000000000000e+00,2.617222784207867026e+00,-9.795036250782150233e+00
0.000000000000000000e+00,2.617222758945043637e+00,-9.795033060843604034e+00
0.000000000000000000e+00,2.617222733670670376e+00,-9.795029869470800676e+00
0.000000000000000000e+00,2.617222708384940866e+00,-9.795026676685619549e+00
0.000000000000000000e+00,2.617222683088042512e+00,-9.795023482509945367e+00
0.000000000000000000e+00,2.617222657780163164e+00,-9.795020286965669953e+00
0.000000000000000000e+00,2.617222632461490228e+00,-9.795017090074697563e+00
0.000000000000000000e+00,2.617222607132209333e+00,-9.795013891858941335e+00
0.000000000000000000e+00,2.617222581792503000e+00,-9.795010692340319736e+00
0.000000000000000000e+00,2.617222556442555526e+00,-9.795007491540765443e+00
0.000000000000000000e+00,2.617222531082549875e+00,-9.795004289482221793e+00
0.000000000000000000e+00,2.617222505712666791e+00,-9.795001086186628569e+00
0.000000000000000000e+00,2.617222480333087908e+00,-9.794997881675946871e+00
0.000000000000000000e+00,2.617222454943992194e+00,-9.794994675972137799e+00
0.000000000000000000e+00,2.617222429545558615e+00,-9.794991469097181991e+00
0.000000000000000000e+00,2.617222404137967473e+00,-9.794988261073051206e+00
0.000000000000000000e+00,2.617222378721398179e+00,-9.794985051921736741e+00
0.000000000000000000e+00,2.617222353296028814e+00,-9.794981841665240552e+00
0.000000000000000000e+00,2.617222327862036568e+00,-9.794978630325559266e+00
0.000000000000000000e+00,2.617222302419599966e+00,-9.794975417924705496e+00
0.000000000000000000e+00,2.617222276968894867e+00,-9.794972204484700740e+00
0.000000000000000000e+00,2.617222251510098907e+00,-9.794968990027568267e+00
0.000000000000000000e+00,2.617222226043390165e+00,-9.794965774575340234e+00
0.000000000000000000e+00,2.617222200568944501e+00,-9.794962558150055898e+00
0.000000000000000000e+00,2.617222175086938663e+00,-9.794959340773763401e+00
0.000000000000000000e+00,2.617222149597548952e+00,-9.794956122468516213e+00
0.000000000000000000e+00,2.617222124100950786e+00,-9.794952903256369581e+00
0.000000000000000000e+00,2.617222098597322244e+00,-9.794949683159387632e+00
0.000000000000000000e+00,2.617222073086838741e+00,-9.794946462199645154e+00
0.000000000000000000e+00,2.617222047569674359e+00,-9.794943240399218709e+00
0.000000000000000000e+00,2.617222022046008512e+00,-9.794940017780191965e+00
0.000000000000000000e+00,2.617221996516013505e+00,-9.794936794364646815e+00
0.000000000000000000e+00,2.617221970979867862e+00,-9.794933570174686466e+00
0.000000000000000000e+00,2.617221945437745667e+00,-9.794930345232398139e+00
0.000000000000000000e+00,2.617221919889823667e+00,-9.794927119559899253e+00
0.000000000000000000e+00,2.617221894336276833e+00,-9.794923893179291241e+00
0.000000000000000000e+00,2.617221868777281912e+00,-9.794920666112687968e+00
0.000000000000000000e+00,2.617221843213013877e+00,-9.794917438382208630e+00
0.000000000000000000e+00,2.617221817643646808e+00,-9.794914210009979527e+00
0.000000000000000000e+00,2.617221792069359676e+00,-9.794910981018125185e+00
0.000000000000000000e+00,2.617221766490325674e+00,-9.794907751428775455e+00
0.000000000000000000e+00,2.617221740906722438e+00,-9.794904521264070851e+00
0.000000000000000000e+00,2.617221715318722719e+00,-9.794901290546148331e+00
0.000000000000000000e+00,2.617221689726504152e+00,-9.794898059297155513e+00
0.000000000000000000e+00,2.617221664130242154e+00,-9.794894827539231130e+00
0.000000000000000000e+00,2.617221638530112138e+00,-9.794891595294533460e+00
0.000000000000000000e+00,2.617221612926290408e+00,-9.794888362585213670e+00
0.000000000000000000e+00,2.617221587318951936e+00,-9.794885129433431814e+00
0.000000000000000000e+00,2.617221561708272581e+00,-9.794881895861340837e+00
0.000000000000000000e+00,2.617221536094427314e+00,-9.794878661891109672e+00
0.000000000000000000e+00,2.617221510477591995e+00,-9.794875427544901925e+00
0.000000000000000000e+00,2.617221484857945146e+00,-9.794872192844886527e+00
0.000000000000000000e+00,2.617221459235658187e+00,-9.794868957813234189e+00
0.000000000000000000e+00,2.617221433610908754e+00,-9.794865722472119174e+00
0.000000000000000000e+00,2.617221407983873593e+00,-9.794862486843710414e+00
0.000000000000000000e+00,2.617221382354726789e+00,-9.794859250950194607e+00
0.000000000000000000e+00,2.617221356723644643e+00,-9.794856014813742462e+00
0.000000000000000000e+00,2.617221331090803460e+00,-9.794852778456533571e+00
0.000000000000000000e+00,2.617221305456378211e+00,-9.794849541900758183e+00
0.000000000000000000e+00,2.617221279820543423e+00,-9.794846305168590561e+00
0.000000000000000000e+00,2.617221254183477175e+00,-9.794843068282220955e+00
0.000000000000000000e+00,2.617221228545356215e+00,-9.794839831263832508e+00
0.000000000000000000e+00,2.617221202906351962e+00,-9.794836594135610142e+00
0.000000000000000000e+00,2.617221177266643828e+00,-9.794833356919744105e+00
0.000000000000000000e+00,2.617221151626405007e+00,-9.794830119638421095e+00
0.000000000000000000e+00,2.617221125985814467e+00,-9.794826882313826033e+00
0.000000000000000000e+00,2.617221100345044960e+00,-9.794823644968152720e+00
0.000000000000000000e+00,2.617221074704274120e+00,-9.794820407623582526e+00
0.000000000000000000e+00,2.617221049063676475e+00,-9.794817170302309250e+00
0.000000000000000000e+00,2.617221023423428328e+00,-9.794813933026521369e+00
0.000000000000000000e+00,2.617220997783704650e+00,-9.794810695818403801e+00
0.000000000000000000e+00,2.617220972144683078e+00,-9.794807458700145020e+00
0.000000000000000000e+00,2.617220946506538137e+00,-9.794804221693928170e+00
0.000000000000000000e+00,2.617220920869445688e+00,-9.794800984821950607e+00
0.000000000000000000e+00,2.617220895233580702e+00,-9.794797748106384816e+00
0.000000000000000000e+00,2.617220869599119926e+00,-9.794794511569419271e+00
0.000000000000000000e+00,2.617220843966239219e+00,-9.794791275233235339e+00
0.000000000000000000e+00,2.617220818335112220e+00,-9.794788039120021494e+00
0.000000000000000000e+00,2.617220792705918342e+00,-9.794784803251946670e+00
0.000000000000000000e+00,2.617220767078829002e+00,-9.794781567651195786e+00
0.000000000000000000e+00,2.617220741454022725e+00,-9.794778332339941329e+00
0.000000000000000000e+00,2.617220715831675371e+00,-9.794775097340362890e+00
0.000000000000000000e+00,2.617220690211961465e+00,-9.794771862674625851e+00
0.000000000000000000e+00,2.617220664595055979e+00,-9.794768628364904473e+00
0.000000000000000000e+00,2.617220638981134329e+00,-9.794765394433364136e+00
0.000000000000000000e+00,2.617220613370374149e+00,-9.794762160902171999e+00
0.000000000000000000e+00,2.617220587762947748e+00,-9.794758927793482783e+00
0.000000000000000000e+00,2.617220562159034536e+00,-9.794755695129465423e+00
0.000000000000000000e+00,2.617220536558808153e+00,-9.794752462932265757e+00
0.000000000000000000e+00,2.617220510962443569e+00,-9.794749231224043839e+00
0.000000000000000000e+00,2.617220485370117089e+00,-9.794746000026949062e+00
0.000000000000000000e+00,2.617220459782002351e+00,-9.794742769363118384e+00
0.000000000000000000e+00,2.617220434198277434e+00,-9.794739539254704752e+00
0.000000000000000000e+00,2.617220408619115979e+00,-9.794736309723841572e+00
0.000000000000000000e+00,2.617220383044693843e+00,-9.794733080792658697e+00
0.000000000000000000e+00,2.617220357475185555e+00,-9.794729852483294863e+00
0.000000000000000000e+00,2.617220331910768305e+00,-9.794726624817869265e+00
0.000000000000000000e+00,2.617220306351614845e+00,-9.794723397818508204e+00
0.000000000000000000e+00,2.617220280797901033e+00,-9.794720171507327322e+00
0.000000000000000000e+00,2.617220255249803618e+00,-9.794716945906433381e+00
0.000000000000000000e+00,2.617220229707495793e+00,-9.794713721037938470e+00
0.000000000000000000e+00,2.617220204171154307e+00,-9.794710496923942245e+00
0.000000000000000000e+00,2.617220178640952355e+00,-9.794707273586547913e+00
0.000000000000000000e+00,2.617220153117066239e+00,-9.794704051047837368e+00
0.000000000000000000e+00,2.617220127599670487e+00,-9.794700829329904934e+00
0.000000000000000000e+00,2.617220102088940070e+00,-9.794697608454827176e+00
0.000000000000000000e+00,2.617220076585049071e+00,-9.794694388444678879e+00
0.000000000000000000e+00,2.617220051088173793e+00,-9.794691169321527724e+00
0.000000000000000000e+00,2.617220025598487876e+00,-9.794687951107437840e+00
0.000000000000000000e+00,2.617220000116166734e+00,-9.794684733824469802e+00
0.000000000000000000e+00,2.617219974641384006e+00,-9.794681517494666423e+00
0.000000000000000000e+00,2.617219949174314664e+00,-9.794678302140072290e+00
0.000000000000000000e+00,2.617219923715134566e+00,-9.794675087782730216e+00
0.000000000000000000e+00,2.617219898264016464e+00,-9.794671874444663473e+00
0.000000000000000000e+00,2.617219872821134885e+00,-9.794668662147895333e+00
0.000000000000000000e+00,2.617219847386665244e+00,-9.794665450914443738e+00
0.000000000000000000e+00,2.617219821960781179e+00,-9.794662240766315975e+00
0.000000000000000000e+00,2.617219796543657662e+00,-9.794659031725515774e+00
0.000000000000000000e+00,2.617219771135469664e+00,-9.794655823814030882e+00
0.000000000000000000e+00,2.617219745736388603e+00,-9.794652617053852595e+00
0.000000000000000000e+00,2.617219720346589895e+00,-9.794649411466952671e+00
0.000000000000000000e+00,2.617219694966248067e+00,-9.794646207075306421e+00
0.000000000000000000e+00,2.617219669595537646e+00,-9.794643003900871392e+00
0.000000000000000000e+00,2.617219644234630493e+00,-9.794639801965601578e+00
0.000000000000000000e+00,2.617219618883702026e+00,-9.794636601291442091e+00
0.000000000000000000e+00,2.617219593542924549e+00,-9.794633401900327385e+00
0.000000000000000000e+00,2.617219568212473924e+00,-9.794630203814188363e+00
0.000000000000000000e+00,2.617219542892522011e+00,-9.794627007054936385e+00
0.000000000000000000e+00,2.617219517583242894e+00,-9.794623811644481037e+00
0.000000000000000000e+00,2.617219492284810212e+00,-9.794620617604728352e+00
0.000000000000000000e+00,2.617219466997397603e+00,-9.794617424957566598e+00
0.000000000000000000e+00,2.617219441721178264e+00,-9.794614233724873387e+00
0.000000000000000000e+00,2.617219416456324055e+00,-9.794611043928520999e+00
0.000000000000000000e+00,2.617219391203009504e+00,-9.794607855590369283e+00
0.000000000000000000e+00,2.617219365961407362e+00,-9.794604668732270980e+00
0.000000000000000000e+00,2.617219340731691268e+00,-9.794601483376062845e+00
0.000000000000000000e+00,2.617219315514033973e+00,-9.794598299543581632e+00
0.000000000000000000e+00,2.617219290308606894e+00,-9.794595117256646333e+00
0.000000000000000000e+00,2.617219265115584115e+00,-9.794591936537065280e+00
0.000000000000000000e+00,2.617219239935138386e+00,-9.794588757406634372e+00
0.000000000000000000e+00,2.617219214767441571e+00,-9.794585579887144178e+00
0.000000000000000000e+00,2.617219189612666863e+00,-9.794582404000372833e+00
0.000000000000000000e+00,2.617219164470986570e+00,-9.794579229768080708e+00
0.000000000000000000e+00,2.617219139342572110e+00,-9.794576057212026399e+00
0.000000000000000000e+00,2.617219114227596233e+00,-9.794572886353954289e+00
0.000000000000000000e+00,2.617219089126231246e+00,-9.794569717215589222e+00
0.000000000000000000e+00,2.617219064038650345e+00,-9.794566549818654266e+00
0.000000000000000000e+00,2.617219038965023614e+00,-9.794563384184856503e+00
0.000000000000000000e+00,2.617219013905523362e+00,-9.794560220335894130e+00
0.000000000000000000e+00,2.617218988860322781e+00,-9.794557058293438701e+00
0.000000000000000000e+00,2.617218963829590628e+00,-9.794553898079174203e+00
0.000000000000000000e+00,2.617218938813500984e+00,-9.794550739714750875e+00
0.000000000000000000e+00,2.617218913812223491e+00,-9.794547583221817177e+00
0.000000000000000000e+00,2.617218888825932233e+00,-9.794544428622003807e+00
0.000000000000000000e+00,2.617218863854796851e+00,-9.794541275936932578e+00
0.000000000000000000e+00,2.617218838898986988e+00,-9.794538125188202216e+00
0.000000000000000000e+00,2.617218813958675394e+00,-9.794534976397414994e+00
0.000000000000000000e+00,2.617218789034032600e+00,-9.794531829586148319e+00
0.000000000000000000e+00,2.617218764125230912e+00,-9.794528684775961835e+00
0.000000000000000000e+00,2.617218739232438640e+00,-9.794525541988415185e+00
0.000000000000000000e+00,2.617218714355827203e+00,-9.794522401245043142e+00
0.000000000000000000e+00,2.617218689495568018e+00,-9.794519262567369822e+00
0.000000000000000000e+00,2.617218664651830728e+00,-9.794516125976905130e+00
0.000000000000000000e+00,2.617218639824785420e+00,-9.794512991495148313e+00
0.000000000000000000e+00,2.617218615014602623e+00,-9.794509859143577302e+00
0.000000000000000000e+00,2.617218590221452423e+00,-9.794506728943661145e+00
0.000000000000000000e+00,2.617218565445504908e+00,-9.794503600916845798e+00
0.000000000000000000e+00,2.617218540686928385e+00,-9.794500475084575442e+00
0.000000000000000000e+00,2.617218515945896051e+00,-9.794497351468269386e+00
0.000000000000000000e+00,2.617218491222573107e+00,-9.794494230089332731e+00
0.000000000000000000e+00,2.617218466517132303e+00,-9.794491110969158143e+00
0.000000000000000000e+00,2.617218441829741948e+00,-9.794487994129124075e+00
0.000000000000000000e+00,2.617218417160569910e+00,-9.794484879590585891e+00
0.000000000000000000e+00,2.617218392509786717e+00,-9.794481767374891845e+00
0.000000000000000000e+00,2.617218367877561125e+00,-9.794478657503367103e+00
0.000000000000000000e+00,2.617218343264062330e+00,-9.794475549997326169e+00
0.000000000000000000e+00,2.617218318669459975e+00,-9.794472444878067563e+00
0.000000000000000000e+00,2.617218294093919262e+00,-9.794469342166864934e+00
0.000000000000000000e+00,2.617218269537611164e+00,-9.794466241884988378e+00
0.000000000000000000e+00,2.617218245000703103e+00,-9.794463144053679571e+00
0.000000000000000000e+00,2.617218220483364277e+00,-9.794460048694167753e+00
0.000000000000000000e+00,2.617218195985761664e+00,-9.794456955827671507e+00
0.000000000000000000e+00,2.617218171508064017e+00,-9.794453865475380994e+00
0.000000000000000000e+00,2.617218147050437871e+00,-9.794450777658475715e+00
0.000000000000000000e+00,2.617218122613051978e+00,-9.794447692398120964e+00
0.000000000000000000e+00,2.617218098196073761e+00,-9.794444609715451833e+00
0.000000000000000000e+00,2.617218073799671529e+00,-9.794441529631603416e+00
0.000000000000000000e+00,2.617218049424009152e+00,-9.794438452167677056e+00
0.000000000000000000e+00,2.617218025069256715e+00,-9.794435377344768767e+00
0.000000000000000000e+00,2.617218000735580752e+00,-9.794432305183944365e+00
0.000000000000000000e+00,2.617217976423146908e+00,-9.794429235706259007e+00
0.000000000000000000e+00,2.617217952132122605e+00,-9.794426168932751864e+00
0.000000000000000000e+00,2.617217927862674820e+00,-9.794423104884433684e+00
0.000000000000000000e+00,2.617217903614968311e+00,-9.794420043582308111e+00
0.000000000000000000e+00,2.617217879389170498e+00,-9.794416985047350366e+00
0.000000000000000000e+00,2.617217855185447917e+00,-9.794413929300521460e+00
0.000000000000000000e+00,2.617217831003965323e+00,-9.794410876362764640e+00
0.000000000000000000e+00,2.617217806844888806e+00,-9.794407826254998284e+00
0.000000000000000000e+00,2.617217782708383567e+00,-9.794404778998130112e+00
0.000000000000000000e+00,2.617217758594616583e+00,-9.794401734613035870e+00
0.000000000000000000e+00,2.617217734503751281e+00,-9.794398693120584198e+00
0.000000000000000000e+00,2.617217710435953304e+00,-9.794395654541615315e+00
0.000000000000000000e+00,2.617217686391388742e+00,-9.794392618896951674e+00
0.000000000000000000e+00,2.617217662370221021e+00,-9.794389586207403298e+00
0.000000000000000000e+00,2.617217638372614452e+00,-9.794386556493742901e+00
0.000000000000000000e+00,2.617217614398735126e+00,-9.794383529776739650e+00
0.000000000000000000e+00,2.617217590448746911e+00,-9.794380506077132509e+00
0.000000000000000000e+00,2.617217566522812788e+00,-9.794377485415646234e+00
0.000000000000000000e+00,2.617217542621099291e+00,-9.794374467812978935e+00
0.000000000000000000e+00,2.617217518743765847e+00,-9.794371453289810958e+00
0.000000000000000000e+00,2.617217494890980767e+00,-9.794368441866796005e+00
0.000000000000000000e+00,2.617217471062904810e+00,-9.794365433564575341e+00
0.000000000000000000e+00,2.617217447259703178e+00,-9.794362428403765364e+00
0.000000000000000000e+00,2.617217423481536631e+00,-9.794359426404959379e+00
0.000000000000000000e+00,2.617217399728568594e+00,-9.794356427588725822e+00
0.000000000000000000e+00,2.617217376000964268e+00,-9.794353431975620694e+00
0.000000000000000000e+00,2.617217352298885302e+00,-9.794350439586169799e+00
0.000000000000000000e+00,2.617217328622491568e+00,-9.794347450440882952e+00
0.000000000000000000e+00,2.617217304971948710e+00,-9.794344464560236219e+00
0.000000000000000000e+00,2.617217281347417046e+00,-9.794341481964698559e+00
0.000000000000000000e+00,2.617217257749058668e+00,-9.794338502674708735e+00
0.000000000000000000e+00,2.617217234177036111e+00,-9.794335526710680639e+00
0.000000000000000000e+00,2.617217210631510138e+00,-9.794332554093008625e+00
0.000000000000000000e+00,2.617217187112641952e+00,-9.794329584842063952e+00
0.000000000000000000e+00,2.617217163620593201e+00,-9.794326618978200116e+00
0.000000000000000000e+00,2.617217140155525534e+00,-9.794323656521731536e+00
0.000000000000000000e+00,2.617217116717600156e+00,-9.794320697492963745e+00
0.000000000000000000e+00,2.617217093306974718e+00,-9.794317741912172082e+00
0.000000000000000000e+00,2.617217069923811756e+00,-9.794314789799615895e+00
0.000000000000000000e+00,2.617217046568272476e+00,-9.794311841175524336e+00
0.000000000000000000e+00,2.617217023240514973e+00,-9.794308896060101688e+00
0.000000000000000000e+00,2.617216999940701339e+00,-9.794305954473527365e+00
0.000000000000000000e+00,2.617216976668990114e+00,-9.794303016435961240e+00
0.000000000000000000e+00,2.617216953425539394e+00,-9.794300081967541871e+00
0.000000000000000000e+00,2.617216930210510384e+00,-9.794297151088374065e+00
0.000000000000000000e+00,2.617216907024061179e+00,-9.794294223818544864e+00
0.000000000000000000e+00,2.617216883866351651e+00,-9.794291300178109339e+00
0.000000000000000000e+00,2.617216860737539452e+00,-9.794288380187103016e+00
0.000000000000000000e+00,2.617216837637784899e+00,-9.794285463865543662e+00
0.000000000000000000e+00,2.617216814567244310e+00,-9.794282551233408185e+00
0.000000000000000000e+00,2.617216791526076669e+00,-9.794279642310655731e+00
0.000000000000000000e+00,2.617216768514439629e+00,-9.794276737117227682e+00
0.000000000000000000e+00,2.617216745532492617e+00,-9.794273835673022788e+00
0.000000000000000000e+00,2.617216722580389288e+00,-9.794270937997934467e+00
0.000000000000000000e+00,2.617216699658290846e+00,-9.794268044111809957e+00
0.000000000000000000e+00,2.617216676766352279e+00,-9.794265154034484056e+00
0.000000000000000000e+00,2.617216653904732571e+00,-9.794262267785763143e+00
0.000000000000000000e+00,2.617216631073585376e+00,-9.794259385385423400e+00
0.000000000000000000e+00,2.617216608273069234e+00,-9.794256506853217914e+00
0.000000000000000000e+00,2.617216585503339576e+00,-9.794253632208874905e+00
0.000000000000000000e+00,2.617216562764553167e+00,-9.794250761472085287e+00
0.000000000000000000e+00,2.617216540056866325e+00,-9.794247894662529319e+00
0.000000000000000000e+00,2.617216517380432261e+00,-9.794245031799848178e+00
0.000000000000000000e+00,2.617216494735409960e+00,-9.794242172903663501e+00
0.000000000000000000e+00,2.617216472121950854e+00,-9.794239317993559624e+00
0.000000000000000000e+00,2.617216449540213485e+00,-9.794236467089108444e+00
0.000000000000000000e+00,2.617216426990350175e+00,-9.794233620209839231e+00
0.000000000000000000e+00,2.617216404472515912e+00,-9.794230777375268815e+00
0.000000000000000000e+00,2.617216381986866125e+00,-9.794227938604867845e+00
0.000000000000000000e+00,2.617216359533553138e+00,-9.794225103918094533e+00
0.000000000000000000e+00,2.617216337112733271e+00,-9.794222273334375117e+00
0.000000000000000000e+00,2.617216314724557513e+00,-9.794219446873102086e+00
0.000000000000000000e+00,2.617216292369181740e+00,-9.794216624553650163e+00
0.000000000000000000e+00,2.617216270046757387e+00,-9.794213806395354993e+00
0.000000000000000000e+00,2.617216247757438552e+00,-9.794210992417525574e+00
0.000000000000000000e+00,2.617216225501376670e+00,-9.794208182639453142e+00
0.000000000000000000e+00,2.617216203278726727e+00,-9.794205377080384523e+00
0.000000000000000000e+00,2.617216181089638383e+00,-9.794202575759548779e+00
0.000000000000000000e+00,2.617216158934265291e+00,-9.794199778696139447e+00
0.000000000000000000e+00,2.617216136812759331e+00,-9.794196985909325193e+00
0.000000000000000000e+00,2.617216114725271048e+00,-9.794194197418244485e+00
0.000000000000000000e+00,2.617216092671952321e+00,-9.794191413242003819e+00
0.000000000000000000e+00,2.617216070652954585e+00,-9.794188633399686594e+00
0.000000000000000000e+00,2.617216048668429274e+00,-9.794185857910335358e+00
0.000000000000000000e+00,2.617216026718526933e+00,-9.794183086792967785e+00
0.000000000000000000e+00,2.617216004803395890e+00,-9.794180320066580236e+00
0.000000000000000000e+00,2.617215982923188911e+00,-9.794177557750128216e+00
0.000000000000000000e+00,2.617215961078054764e+00,-9.794174799862538805e+00
0.000000000000000000e+00,2.617215939268143998e+00,-9.794172046422712441e+00
0.000000000000000000e+00,2.617215917493604938e+00,-9.794169297449515810e+00
0.000000000000000000e+00,2.617215895754587240e+00,-9.794166552961788952e+00
0.000000000000000000e+00,2.617215874051241009e+00,-9.794163812978334605e+00
0.000000000000000000e+00,2.617215852383713681e+00,-9.794161077517932412e+00
0.000000000000000000e+00,2.617215830752154027e+00,-9.794158346599322940e+00
0.000000000000000000e+00,2.617215809156710371e+00,-9.794155620241220106e+00
0.000000000000000000e+00,2.617215787597531929e+00,-9.794152898462309409e+00
0.000000000000000000e+00,2.617215766074763472e+00,-9.794150181281239043e+00
0.000000000000000000e+00,2.617215744588555992e+00,-9.794147468716632332e+00
0.000000000000000000e+00,2.617215723139054706e+00,-9.794144760787068194e+00
0.000000000000000000e+00,2.617215701726407495e+00,-9.794142057511111332e+00
0.000000000000000000e+00,2.617215680350760465e+00,-9.794139358907280268e+00
0.000000000000000000e+00,2.617215659012261497e+00,-9.794136664994068653e+00
0.000000000000000000e+00,2.617215637711054477e+00,-9.794133975789941715e+00
0.000000000000000000e+00,2.617215616447286841e+00,-9.794131291313314946e+00
0.000000000000000000e+00,2.617215595221104252e+00,-9.794128611582593180e+00
0.000000000000000000e+00,2.617215574032651926e+00,-9.794125936616136840e+00
0.000000000000000000e+00,2.617215552882075524e+00,-9.794123266432272601e+00
0.000000000000000000e+00,2.617215531769519821e+00,-9.794120601049298713e+00
0.000000000000000000e+00,2.617215510695130032e+00,-9.794117940485486784e+00
0.000000000000000000e+00,2.617215489659049155e+00,-9.794115284759058682e+00
0.000000000000000000e+00,2.617215468661424183e+00,-9.794112633888213182e+00
0.000000000000000000e+00,2.617215447702394560e+00,-9.794109987891120639e+00
0.000000000000000000e+00,2.617215426782109056e+00,-9.794107346785905222e+00
0.000000000000000000e+00,2.617215405900706227e+00,-9.794104710590673335e+00
0.000000000000000000e+00,2.617215385058333510e+00,-9.794102079323481647e+00
0.000000000000000000e+00,2.617215364255130350e+00,-9.794099453002365507e+00
0.000000000000000000e+00,2.617215343491241519e+00,-9.794096831645314083e+00
0.000000000000000000e+00,2.617215322766808683e+00,-9.794094215270295223e+00
0.000000000000000000e+00,2.617215302081973949e+00,-9.794091603895237697e+00
0.000000000000000000e+00,2.617215281436878094e+00,-9.794088997538034747e+00
0.000000000000000000e+00,2.617215260831663670e+00,-9.794086396216545864e+00
0.000000000000000000e+00,2.617215240266471010e+00,-9.794083799948593239e+00
0.000000000000000000e+00,2.617215219741442667e+00,-9.794081208751970635e+00
0.000000000000000000e+00,2.617215199256719416e+00,-9.794078622644432741e+00
0.000000000000000000e+00,2.617215178812439369e+00,-9.794076041643700492e+00
0.000000000000000000e+00,2.617215158408744635e+00,-9.794073465767459297e+00
0.000000000000000000e+00,2.617215138045774214e+00,-9.794070895033357260e+00
0.000000000000000000e+00,2.617215117723667550e+00,-9.794068329459015843e+00
0.000000000000000000e+00,2.617215097442564531e+00,-9.794065769062008542e+00
0.000000000000000000e+00,2.617215077202603268e+00,-9.794063213859882211e+00
0.000000000000000000e+00,2.617215057003923651e+00,-9.794060663870146399e+00
0.000000000000000000e+00,2.617215036846663345e+00,-9.794058119110275129e+00
0.000000000000000000e+00,2.617215016730961352e+00,-9.794055579597703343e+00
0.000000000000000000e+00,2.617214996656954895e+00,-9.794053045349834008e+00
0.000000000000000000e+00,2.617214976624780309e+00,-9.794050516384032790e+00
0.000000000000000000e+00,2.617214956634577039e+00,-9.794047992717626272e+00
0.000000000000000000e+00,2.617214936686481863e+00,-9.794045474367907289e+00
0.000000000000000000e+00,2.617214916780630674e+00,-9.794042961352134924e+00
0.000000000000000000e+00,2.617214896917159805e+00,-9.794040453687527403e+00
0.000000000000000000e+00,2.617214877096206926e+00,-9.794037951391269203e+00
0.000000000000000000e+00,2.617214857317904375e+00,-9.794035454480500391e+00
0.000000000000000000e+00,2.617214837582391151e+00,-9.794032962972337941e+00
0.000000000000000000e+00,2.617214817889802703e+00,-9.794030476883852643e+00
0.000000000000000000e+00,2.617214798240271811e+00,-9.794027996232074429e+00
0.000000000000000000e+00,2.617214778633933481e+00,-9.794025521034006587e+00
0.000000000000000000e+00,2.617214759070923158e+00,-9.794023051306609773e+00
0.000000000000000000e+00,2.617214739551374514e+00,-9.794020587066800232e+00
0.000000000000000000e+00,2.617214720075420775e+00,-9.794018128331471118e+00
0.000000000000000000e+00,2.617214700643197389e+00,-9.794015675117465847e+00
0.000000000000000000e+00,2.617214681254835362e+00,-9.794013227441595859e+00
0.000000000000000000e+00,2.617214661910467921e+00,-9.794010785320629964e+00
0.000000000000000000e+00,2.617214642610228292e+00,-9.794008348771306771e+00
0.000000000000000000e+00,2.617214623354249259e+00,-9.794005917810316930e+00
0.000000000000000000e+00,2.617214604142660050e+00,-9.794003492454322668e+00
0.000000000000000000e+00,2.617214584975597447e+00,-9.794001072719938250e+00
0.000000000000000000e+00,2.617214565853187125e+00,-9.793998658623745968e+00
0.000000000000000000e+00,2.617214546775564976e+00,-9.793996250182287255e+00
0.000000000000000000e+00,2.617214527742858010e+00,-9.793993847412066245e+00
0.000000000000000000e+00,2.617214508755198565e+00,-9.793991450329542658e+00
0.000000000000000000e+00,2.617214489812717204e+00,-9.793989058951147797e+00
0.000000000000000000e+00,2.617214470915541824e+00,-9.793986673293265000e+00
0.000000000000000000e+00,2.617214452063804764e+00,-9.793984293372238525e+00
0.000000000000000000e+00,2.617214433257633033e+00,-9.793981919204377107e+00
0.000000000000000000e+00,2.617214414497155861e+00,-9.793979550805950396e+00
0.000000000000000000e+00,2.617214395782502478e+00,-9.793977188193183636e+00
0.000000000000000000e+00,2.617214377113799451e+00,-9.793974831382271873e+00
0.000000000000000000e+00,2.617214358491177340e+00,-9.793972480389356861e+00
0.000000000000000000e+00,2.355414952115614025e+00,-9.793970135230550156e+00
0.000000000000000000e+00,2.119795486415794183e+00,-9.793968029642595496e+00
0.000000000000000000e+00,1.907737967316704086e+00,-9.793966138727951076e+00
0.000000000000000000e+00,1.716886200152220932e+00,-9.793964440254782744e+00
0.000000000000000000e+00,1.545119609723968557e+00,-9.793962914357699390e+00
0.000000000000000000e+00,1.390529678354331944e+00,-9.793961543274443571e+00
0.000000000000000000e+00,1.251398740134205489e+00,-9.793960311113817596e+00
0.000000000000000000e+00,1.126180895746006438e+00,-9.793959203650842937e+00
0.000000000000000000e+00,1.013484835804404849e+00,-9.793958208145696176e+00
0.000000000000000000e+00,9.120583818630073614e-01,-9.793957313183438984e+00
0.000000000000000000e+00,8.207745733203863914e-01,-9.793956508531977079e+00
0.000000000000000000e+00,7.386191456355231111e-01,-9.793955785015988624e+00
0.000000000000000000e+00,6.646792607217161253e-01,-9.793955134404939145e+00
0.000000000000000000e+00,5.981333643011089718e-01,-9.793954549313459879e+00
0.000000000000000000e+00,5.382420575237732985e-01,-9.793954023112659613e+00
0.000000000000000000e+00,4.843398814248880968e-01,-9.793953549851091012e+00
0.000000000000000000e+00,4.358279229362083118e-01,-9.793953124184266557e+00
0.000000000000000000e+00,3.921671602963890946e-01,-9.793952741311716892e+00
0.000000000000000000e+00,3.528724739202814820e-01,-9.793952396920788672e+00
0.000000000000000000e+00,3.175072561813011562e-01,-9.793952087136389650e+00
0.000000000000000000e+00,2.856785602155628156e-01,-9.793951808476036192e+00
0.000000000000000000e+00,2.570327338456022681e-01,-9.793951557809640107e+00
0.000000000000000000e+00,2.312514901117282140e-01,-9.793951332323468151e+00
0.000000000000000000e+00,2.080483707502402413e-01,-9.793951129487885154e+00
0.000000000000000000e+00,1.871655633238251959e-01,-9.793950947028415399e+00
0.000000000000000000e+00,1.683710366389155055e-01,-9.793950782899825569e+00
0.000000000000000000e+00,1.514559626213117238e-01,-9.793950635262843818e+00
0.000000000000000000e+00,1.362323960042436111e-01,-9.793950502463307117e+00
0.000000000000000000e+00,1.225311860476255010e-01,-9.793950383013413585e+00
0.000000000000000000e+00,1.102000970853864309e-01,-9.793950275574909270e+00
0.000000000000000000e+00,9.910211701806739826e-02,-9.793950178943997997e+00
0.000000000000000000e+00,8.911393495615939353e-02,-9.793950092037759347e+00
0.000000000000000000e+00,8.012457109910745001e-02,-9.793950013881977057e+00
0.000000000000000000e+00,7.203414362641476221e-02,-9.793949943600198438e+00
0.000000000000000000e+00,6.475275889963631737e-02,-9.793949880403868491e+00
0.000000000000000000e+00,5.819951264417339010e-02,-9.793949823583515624e+00
0.000000000000000000e+00,5.230159101288843482e-02,-9.793949772500786466e+00
0.000000000000000000e+00,4.699346154335885123e-02,-9.793949726581317350e+00
0.000000000000000000e+00,4.221614501940518932e-02,-9.793949685308277253e+00
0.000000000000000000e+00,3.791656014646668099e-02,-9.793949648216631942e+00
0.000000000000000000e+00,3.404693375943926292e-02,-9.793949614887916155e+00
0.000000000000000000e+00,3.056427000972973887e-02,-9.793949584945570663e+00
0.000000000000000000e+00,2.742987263360464195e-02,-9.793949558050750070e+00
0.000000000000000000e+00,2.460891499370418053e-02,-9.793949533898526738e+00
0.000000000000000000e+00,2.207005311640477044e-02,-9.793949512214503272e+00
0.000000000000000000e+00,1.978507742544541315e-02,-9.793949492751742980e+00
0.000000000000000000e+00,1.772859930219138069e-02,-9.793949475288032502e+00
0.000000000000000000e+00,1.587776898987156363e-02,-9.793949459623391363e+00
0.000000000000000000e+00,1.421202170739205642e-02,-9.793949445577851520e+00
0.000000000000000000e+00,1.271284915176843985e-02,-9.793949432989455417e+00
0.000000000000000000e+00,1.136359385031482545e-02,-9.793949421712447645e+00
0.000000000000000000e+00,1.014926407761395331e-02,-9.793949411615660239e+00
0.000000000000000000e+00,9.056367280790345031e-03,-9.793949402581043628e+00
0.000000000000000000e+00,8.072760162256109595e-03,-9.793949394502359240e+00
0.000000000000000000e+00,7.187513754182178055e-03,-9.793949387283994668e+00
0.000000000000000000e+00,6.390791985522406571e-03,-9.793949380839908514e+00
0.000000000000000000e+00,5.673742392335293441e-03,-9.793949375092658727e+00
0.000000000000000000e+00,5.028397757073503269e-03,-9.793949369972558827e+00
0.000000000000000000e+00,4.447587583944444256e-03,-9.793949365416876773e+00
0.000000000000000000e+00,3.924858426734794022e-03,-9.793949361369170603e+00
0.000000000000000000e+00,3.454402183852579942e-03,-9.793949357778636511e+00
0.000000000000000000e+00,3.030991563865022623e-03,-9.793949354599556401e+00
0.000000000000000000e+00,2.649922004482633750e-03,-9.793949351790779190e+00
0.000000000000000000e+00,2.306959399644877007e-03,-9.793949349315271391e+00
0.000000000000000000e+00,1.998293053897271139e-03,-9.793949347139704997e+00
0.000000000000000000e+00,1.720493341330789176e-03,-9.793949345234082671e+00
0.000000000000000000e+00,1.470473598627307366e-03,-9.793949343571412669e+00
0.000000000000000000e+00,1.245455828800517712e-03,-9.793949342127392654e+00
0.000000000000000000e+00,1.042939834562743888e-03,-9.793949340880162779e+00
0.000000000000000000e+00,8.606754383550783462e-04,-9.793949339810039234e+00
0.000000000000000000e+00,6.966374803745055324e-04,-9.793949338899313517e+00
0.000000000000000000e+00,5.490033167983131160e-04,-9.793949338132041049e+00
0.000000000000000000e+00,4.161325681860598264e-04,-9.793949337493881302e+00
0.000000000000000000e+00,2.965488930413491433e-04,-9.793949336971920161e+00
0.000000000000000000e+00,1.889235840174250986e-04,-9.793949336554538476e+00
0.000000000000000000e+00,9.206080450220696827e-05,-9.793949336231275282e+00
0.000000000000000000e+00,4.884301544823320754e-06,-9.793949335992721217e+00
0.000000000000000000e+00,-7.357455251051013253e-05,-9.793949335830406611e+00
0.000000000000000000e+00,-1.441875225539997662e-04,-9.793949335736703787e+00
0.000000000000000000e+00,-2.077391969868304096e-04,-9.793949335704754233e+00
0.000000000000000000e+00,-2.649357053700686663e-04,-9.793949335728381556e+00
0.000000000000000000e+00,-3.164125643086736477e-04,-9.793949335802025757e+00
0.000000000000000000e+00,-3.627417387471094674e-04,-9.793949335920693500e+00
0.000000000000000000e+00,-4.044379971353934643e-04,-9.793949336079869283e+00
0.000000000000000000e+00,-4.419646310785408641e-04,-9.793949336275513673e+00
0.000000000000000000e+00,-4.757386030210653915e-04,-9.793949336503972702e+00
0.000000000000000000e+00,-5.061351791630295778e-04,-9.793949336761968993e+00
0.000000000000000000e+00,-5.334920990844895222e-04,-9.793949337046544912e+00
0.000000000000000000e+00,-5.581133284074959143e-04,-9.793949337355048357e+00
0.000000000000000000e+00,-5.802724361918939686e-04,-9.793949337685081247e+00
0.000000000000000000e+00,-6.002156345915447572e-04,-9.793949338034494190e+00
0.000000000000000000e+00,-6.181645145449227684e-04,-9.793949338401345628e+00
0.000000000000000000e+00,-6.343185078966557568e-04,-9.793949338783892955e+00
0.000000000000000000e+00,-6.488571033069078127e-04,-9.793949339180569424e+00
0.000000000000000000e+00,-6.619418405698271595e-04,-9.793949339589957503e+00
0.000000000000000000e+00,-6.737181055001473717e-04,-9.793949340010792426e+00
0.000000000000000000e+00,-6.843167453311281134e-04,-9.793949340441923113e+00
0.000000000000000000e+00,-6.938555225727031581e-04,-9.793949340882319277e+00
0.000000000000000000e+00,-7.024404234838132598e-04,-9.793949341331062541e+00
0.000000000000000000e+00,-7.101668356975051515e-04,-9.793949341787309137e+00
0.000000000000000000e+00,-7.171206080835202962e-04,-9.793949342250314771e+00
0.000000000000000000e+00,-7.233790046246264338e-04,-9.793949342719400875e+00
0.000000000000000000e+00,-7.290115629053145951e-04,-9.793949343193959933e+00
0.000000000000000000e+00,-7.340808667516266536e-04,-9.793949343673446606e+00
0.000000000000000000e+00,-7.386432416070000135e-04,-9.793949344157363512e+00
0.000000000000000000e+00,-7.427493803705284905e-04,-9.793949344645271893e+00
0.000000000000000000e+00,-7.464449066513966164e-04,-9.793949345136770290e+00
0.000000000000000000e+00,-7.497708816978706104e-04,-9.793949345631499881e+00
0.000000000000000000e+00,-7.527642606333894955e-04,-9.793949346129139144e+00
0.000000000000000000e+00,-7.554583030690491079e-04,-9.793949346629396757e+00
0.000000000000000000e+00,-7.578829426548354615e-04,-9.793949347132008043e+00
0.000000000000000000e+00,-7.600651196757355569e-04,-9.793949347636745628e+00
0.000000000000000000e+00,-7.620290803882380634e-04,-9.793949348143385691e+00
0.000000000000000000e+00,-7.637966464231829566e-04,-9.793949348651743492e+00
0.000000000000000000e+00,-7.653874572483255426e-04,-9.793949349161648499e+00
0.000000000000000000e+00,-7.668191883846466050e-04,-9.793949349672946170e+00
0.000000000000000000e+00,-7.681077478010279926e-04,-9.793949350185490843e+00
0.000000000000000000e+00,-7.692674526694635645e-04,-9.793949350699165279e+00
0.000000000000000000e+00,-7.703111884447481732e-04,-9.793949351213855792e+00
0.000000000000000000e+00,-7.712505520361966115e-04,-9.793949351729455799e+00
0.000000000000000000e+00,-7.720959806621924965e-04,-9.793949352245878259e+00
0.000000000000000000e+00,-7.728568678192814304e-04,-9.793949352763041460e+00
0.000000000000000000e+00,-7.735416676543538806e-04,-9.793949353280870795e+00
0.000000000000000000e+00,-7.741579888996113221e-04,-9.793949353799296986e+00
0.000000000000000000e+00,-7.747126794140353316e-04,-9.793949354318263190e+00
0.000000000000000000e+00,-7.752119022707095776e-04,-9.793949354837712562e+00
0.000000000000000000e+00,-7.756612042354085051e-04,-9.793949355357600695e+00
0.000000000000000000e+00,-7.760655773973299714e-04,-9.793949355877879626e+00
0.000000000000000000e+00,-7.764295146367516465e-04,-9.793949356398512052e+00
0.000000000000000000e+00,-7.767570595459234121e-04,-9.793949356919469551e+00
0.000000000000000000e+00,-7.770518513578703350e-04,-9.793949357440705938e+00
0.000000000000000000e+00,-7.773171653823151813e-04,-9.793949357962199898e+00
0.000000000000000000e+00,-7.775559493980075624e-04,-9.793949358483931888e+00
0.000000000000000000e+00,-7.777708564058226706e-04,-9.793949359005866384e+00
0.000000000000000000e+00,-7.779642741065490030e-04,-9.793949359527992726e+00
0.000000000000000000e+00,-7.781383514308949602e-04,-9.793949360050286046e+00
0.000000000000000000e+00,-7.782950224164983735e-04,-9.793949360572732132e+00
0.000000000000000000e+00,-7.784360276972336927e-04,-9.793949361095314998e+00
0.000000000000000000e+00,-7.785629338435880739e-04,-9.793949361618022209e+00
0.000000000000000000e+00,-7.786771507689990365e-04,-9.793949362140843107e+00
0.000000000000000000e+00,-7.787799473955609331e-04,-9.793949362663758151e+00
0.000000000000000000e+00,-7.788724657531592450e-04,-9.793949363186765567e+00
0.000000000000000000e+00,-7.789557336686896150e-04,-9.793949363709852918e+00
0.000000000000000000e+00,-7.790306761863590758e-04,-9.793949364233014876e+00
0.000000000000000000e+00,-7.790981258459539786e-04,-9.793949364756240783e+00
0.000000000000000000e+00,-7.791588319332816599e-04,-9.793949365279527086e+00
0.000000000000000000e+00,-7.792134688055685383e-04,-9.793949365802864904e+00
0.000000000000000000e+00,-7.792626433843192037e-04,-9.793949366326252459e+00
0.000000000000000000e+00,-7.793069018988865292e-04,-9.793949366849682647e+00
0.000000000000000000e+00,-7.793467359556893910e-04,-9.793949367373151915e+00
0.000000000000000000e+00,-7.793825880005040944e-04,-9.793949367896654934e+00
0.000000000000000000e+00,-7.794148562345295421e-04,-9.793949368420186374e+00
0.000000000000000000e+00,-7.794438990388445621e-04,-9.793949368943751566e+00
0.000000000000000000e+00,-7.794700389564201103e-04,-9.793949369467339849e+00
0.000000000000000000e+00,-7.794935662759301448e-04,-9.793949369990949450e+00
0.000000000000000000e+00,-7.795147422571810977e-04,-9.793949370514578590e+00
0.000000000000000000e+00,-7.795338020339995493e-04,-9.793949371038232599e+00
0.000000000000000000e+00,-7.795509572268279151e-04,-9.793949371561899042e+00
0.000000000000000000e+00,-7.795663982940653552e-04,-9.793949372085579697e+00
0.000000000000000000e+00,-7.795802966482712551e-04,-9.793949372609274562e+00
0.000000000000000000e+00,-7.795928065607487037e-04,-9.793949373132981862e+00
0.000000000000000000e+00,-7.796040668756700799e-04,-9.793949373656699819e+00
0.000000000000000000e+00,-7.796142025527917933e-04,-9.793949374180426659e+00
0.000000000000000000e+00,-7.796233260558929103e-04,-9.793949374704165933e+00
0.000000000000000000e+00,-7.796315386023762711e-04,-9.793949375227908760e+00
0.000000000000000000e+00,-7.796389312879031634e-04,-9.793949375751662245e+00
0.000000000000000000e+00,-7.796455860985692342e-04,-9.793949376275421059e+00
0.000000000000000000e+00,-7.796515768218608040e-04,-9.793949376799185202e+00
0.000000000000000000e+00,-7.796569698665151062e-04,-9.793949377322954675e+00
0.000000000000000000e+00,-7.796618250003957591e-04,-9.793949377846727700e+00
0.000000000000000000e+00,-7.796661960145804746e-04,-9.793949378370506054e+00
0.000000000000000000e+00,-7.796701313210387813e-04,-9.793949378894289737e+00
0.000000000000000000e+00,-7.796736744905428864e-04,-9.793949379418073420e+00
0.000000000000000000e+00,-7.796768647367886655e-04,-9.793949379941862432e+00
0.000000000000000000e+00,-7.796797373521016043e-04,-9.793949380465656773e+00
0.000000000000000000e+00,-7.796823240995752686e-04,-9.793949380989449338e+00
0.000000000000000000e+00,-7.796846535659937485e-04,-9.793949381513243679e+00
0.000000000000000000e+00,-7.796867514794619120e-04,-9.793949382037043350e+00
0.000000000000000000e+00,-7.796886409952750400e-04,-9.793949382560843020e+00
0.000000000000000000e+00,-7.796903429531988096e-04,-9.793949383084644467e+00
0.000000000000000000e+00,-7.796918761090220265e-04,-9.793949383608447690e+00
0.000000000000000000e+00,-7.796932573429549195e-04,-9.793949384132254465e+00
0.000000000000000000e+00,-7.796945018471862499e-04,-9.793949384656059465e+00
0.000000000000000000e+00,-7.796956232946860004e-04,-9.793949385179866240e+00
0.000000000000000000e+00,-7.796966339911279038e-04,-9.793949385703674793e+00
0.000000000000000000e+00,-7.796975450116174194e-04,-9.793949386227483345e+00
0.000000000000000000e+00,-7.796983663237497643e-04,-9.793949386751293673e+00
0.000000000000000000e+00,-7.796991068983605147e-04,-9.793949387275102225e+00
0.000000000000000000e+00,-7.796997748092020578e-04,-9.793949387798914330e+00
0.000000000000000000e+00,-7.797003773226511298e-04,-9.793949388322728211e+00
0.000000000000000000e+00,-7.797009209784468587e-04,-9.793949388846538540e+00
0.000000000000000000e+00,-7.797014116623550775e-04,-9.793949389370350644e+00
0.000000000000000000e+00,-7.797018546715641469e-04,-9.793949389894166302e+00
0.000000000000000000e+00,-7.797022547735440144e-04,-9.793949390417978407e+00
0.000000000000000000e+00,-7.797026162590175134e-04,-9.793949390941790512e+00
0.000000000000000000e+00,-7.797029429896355519e-04,-9.793949391465604393e+00
0.000000000000000000e+00,-7.797032384408833288e-04,-9.793949391989418274e+00
0.000000000000000000e+00,-7.797035057406979898e-04,-9.793949392513232155e+00
0.000000000000000000e+00,-7.797037477042228354e-04,-9.793949393037047813e+00
0.000000000000000000e+00,-7.797039668650869882e-04,-9.793949393560865246e+00
0.000000000000000000e+00,-7.797041655035563765e-04,-9.793949394084677351e+00
0.000000000000000000e+00,-7.797043456718704552e-04,-9.793949394608494785e+00
0.000000000000000000e+00,-7.797045092170448201e-04,-9.793949395132308666e+00
0.000000000000000000e+00,-7.797046578013932042e-04,-9.793949395656124324e+00
0.000000000000000000e+00,-7.797047929209983790e-04,-9.793949396179941758e+00
0.000000000000000000e+00,-7.797049159223347087e-04,-9.793949396703753862e+00
0.000000000000000000e+00,-7.797050280172290564e-04,-9.793949397227569520e+00
0.000000000000000000e+00,-7.797051302963255983e-04,-9.793949397751388730e+00
0.000000000000000000e+00,-7.797052237412040610e-04,-9.793949398275204388e+00
0.000000000000000000e+00,-7.797053092352861439e-04,-9.793949398799021822e+00
0.000000000000000000e+00,-7.797053875736512357e-04,-9.793949399322837479e+00
0.000000000000000000e+00,-7.797054594718719027e-04,-9.793949399846653137e+00
0.000000000000000000e+00,-7.797055255739618503e-04,-9.793949400370470570e+00
0.000000000000000000e+00,-7.797055864595342587e-04,-9.793949400894284452e+00
0.000000000000000000e+00,-7.797056426502412940e-04,-9.793949401418100109e+00
0.000000000000000000e+00,-7.797056946155687344e-04,-9.793949401941919319e+00
0.000000000000000000e+00,-7.797057427780553201e-04,-9.793949402465734977e+00
0.000000000000000000e+00,-7.797057875179843126e-04,-9.793949402989550634e+00
0.000000000000000000e+00,-7.797058291776122084e-04,-9.793949403513369845e+00
0.000000000000000000e+00,-7.797058680649685426e-04,-9.793949404037185502e+00
0.000000000000000000e+00,-7.797059044572811001e-04,-9.793949404561002936e+00
0.000000000000000000e+00,-7.797059386040535323e-04,-9.793949405084818594e+00
0.000000000000000000e+00,-7.797059707298401553e-04,-9.793949405608634251e+00
0.000000000000000000e+00,-7.797060010367396149e-04,-9.793949406132453461e+00
0.000000000000000000e+00,-7.797060297066405951e-04,-9.793949406656269119e+00
0.000000000000000000e+00,-7.797060569032429871e-04,-9.793949407180084776e+00
0.000000000000000000e+00,-7.797060827738762053e-04,-9.793949407703902210e+00
0.000000000000000000e+00,-7.797061074511378500e-04,-9.793949408227719644e+00
0.000000000000000000e+00,-7.797061310543645365e-04,-9.793949408751537078e+00
0.000000000000000000e+00,-7.797061536909598257e-04,-9.793949409275354512e+00
0.000000000000000000e+00,-7.797061754575872802e-04,-9.793949409799170169e+00
0.000000000000000000e+00,-7.797061964412430653e-04,-9.793949410322987603e+00
0.000000000000000000e+00,-7.797062167202249011e-04,-9.793949410846803261e+00
0.000000000000000000e+00,-7.797062363649998572e-04,-9.793949411370622471e+00
0.000000000000000000e+00,-7.797062554389883396e-04,-9.793949411894438128e+00
0.000000000000000000e+00,-7.797062739992695812e-04,-9.793949412418253786e+00
0.000000000000000000e+00,-7.797062920972139483e-04,-9.793949412942072996e+00
0.000000000000000000e+00,-7.797063097790550741e-04,-9.793949413465888654e+00
0.000000000000000000e+00,-7.797063270864033370e-04,-9.793949413989706088e+00
0.000000000000000000e+00,-7.797063440567082726e-04,-9.793949414513523521e+00
0.000000000000000000e+00,-7.797063607236740402e-04,-9.793949415037339179e+00
0.000000000000000000e+00,-7.797063771176342313e-04,-9.793949415561154836e+00
0.000000000000000000e+00,-7.797063932658897072e-04,-9.793949416084974047e+00
0.000000000000000000e+00,-7.797064091930110911e-04,-9.793949416608789704e+00
0.000000000000000000e+00,-7.797064249211115537e-04,-9.793949417132608914e+00
0.000000000000000000e+00,-7.797064404700931439e-04,-9.793949417656426348e+00
0.000000000000000000e+00,-7.797064558578676403e-04,-9.793949418180242006e+00
0.000000000000000000e+00,-7.797064711005560452e-04,-9.793949418704057663e+00
0.000000000000000000e+00,-7.797064862126668267e-04,-9.793949419227875097e+00
0.000000000000000000e+00,-7.797065012072576821e-04,-9.793949419751692531e+00
0.000000000000000000e+00,-7.797065160960806041e-04,-9.793949420275508189e+00
0.000000000000000000e+00,-7.797065308897124184e-04,-9.793949420799327399e+00
0.000000000000000000e+00,-7.797065455976720950e-04,-9.793949421323144833e+00
0.000000000000000000e+00,-7.797065602285269993e-04,-9.793949421846960490e+00
0.000000000000000000e+00,-7.797065747899877605e-04,-9.793949422370777924e+00
0.000000000000000000e+00,-7.797065892889934891e-04,-9.793949422894595358e+00
0.000000000000000000e+00,-7.797066037317895151e-04,-9.793949423418412792e+00
0.000000000000000000e+00,-7.797066181239973182e-04,-9.793949423942228449e+00
0.000000000000000000e+00,-7.797066324706754606e-04,-9.793949424466044107e+00
0.000000000000000000e+00,-7.797066467763769408e-04,-9.793949424989865093e+00
0.000000000000000000e+00,-7.797066610451991757e-04,-9.793949425513680751e+00
0.000000000000000000e+00,-7.797066752808304042e-04,-9.793949426037498185e+00
0.000000000000000000e+00,-7.797066894865893692e-04,-9.793949426561313842e+00
0.000000000000000000e+00,-7.797067036654638066e-04,-9.793949427085131276e+00
0.000000000000000000e+00,-7.797067178201416704e-04,-9.793949427608948710e+00
0.000000000000000000e+00,-7.797067319530426831e-04,-9.793949428132766144e+00
0.000000000000000000e+00,-7.797067460663445731e-04,-9.793949428656585354e+00
0.000000000000000000e+00,-7.797067601620076864e-04,-9.793949429180401012e+00
0.000000000000000000e+00,-7.797067742417950441e-04,-9.793949429704214893e+00
0.000000000000000000e+00,-7.797067883072948940e-04,-9.793949430228035880e+00
0.000000000000000000e+00,-7.797068023599357809e-04,-9.793949430751851537e+00
0.000000000000000000e+00,-7.797068164010036769e-04,-9.793949431275668971e+00
0.000000000000000000e+00,-7.797068304316555343e-04,-9.793949431799486405e+00
0.000000000000000000e+00,-7.797068444529331628e-04,-9.793949432323303839e+00
0.000000000000000000e+00,-7.797068584657740721e-04,-9.793949432847119496e+00
0.000000000000000000e+00,-7.797068724710217716e-04,-9.793949433370936930e+00
0.000000000000000000e+00,-7.797068864694357447e-04,-9.793949433894756140e+00
0.000000000000000000e+00,-7.797069004616990389e-04,-9.793949434418571798e+00
0.000000000000000000e+00,-7.797069144484271557e-04,-9.793949434942391008e+00
0.000000000000000000e+00,-7.797069284301733636e-04,-9.793949435466204889e+00
0.000000000000000000e+00,-7.797069424074357449e-04,-9.793949435990024099e+00
0.000000000000000000e+00,-7.797069563806626174e-04,-9.793949436513839757e+00
0.000000000000000000e+00,-7.797069703502579547e-04,-9.793949437037658967e+00
0.000000000000000000e+00,-7.797069843165845308e-04,-9.793949437561476401e+00
0.000000000000000000e+00,-7.797069982799693412e-04,-9.793949438085292059e+00
0.000000000000000000e+00,-7.797070122407063130e-04,-9.793949438609111269e+00
0.000000000000000000e+00,-7.797070261990606422e-04,-9.793949439132926926e+00
0.000000000000000000e+00,-7.797070401552703110e-04,-9.793949439656744360e+00
0.000000000000000000e+00,-7.797070541095498832e-04,-9.793949440180563570e+00
0.000000000000000000e+00,-7.797070680620922381e-04,-9.793949440704379228e+00
0.000000000000000000e+00,-7.797070820130712820e-04,-9.793949441228196662e+00
0.000000000000000000e+00,-7.797070959626430315e-04,-9.793949441752012319e+00
0.000000000000000000e+00,-7.797071099109484328e-04,-9.793949442275831530e+00
0.000000000000000000e+00,-7.797071238581143376e-04,-9.793949442799647187e+00
0.000000000000000000e+00,-7.797071378042541535e-04,-9.793949443323466397e+00
0.000000000000000000e+00,-7.797071517494705544e-04,-9.793949443847283831e+00
0.000000000000000000e+00,-7.797071656938563480e-04,-9.793949444371101265e+00
0.000000000000000000e+00,-7.797071796374942590e-04,-9.793949444894916923e+00
0.000000000000000000e+00,-7.797071935804590972e-04,-9.793949445418734356e+00
0.000000000000000000e+00,-7.797072075228181917e-04,-9.793949445942551790e+00
