accel_x (m/s^2),accel_y (m/s^2),accel_z (m/s^2)
7.747327078344161053e-03,-1.693590844486036031e-03,-9.811262592116452907e+00
-7.061066855491171350e-03,3.448357772730266911e-03,-9.806303500141037688e+00
-1.792573611812805709e-04,-9.223927025339705198e-04,-9.799795946420999826e+00
2.346736147031972843e-03,9.594023740510644691e-04,-9.803949688392433970e+00
5.170005197117450921e-03,-2.396899643986088926e-03,-9.800914257300359367e+00
-4.966298905628717918e-03,6.995438246228028074e-03,-9.801981911257225732e+00
-2.532747047914155406e-03,3.460233801623604794e-03,-9.802020328116784142e+00
2.972040626705142220e-03,-2.322527404858550342e-03,-9.808907499952839615e+00
3.351954082731543275e-03,2.788041940857468974e-03,-9.800980953782065797e+00
-3.326308944665666914e-03,2.067118598082079255e-03,-9.805794003491532962e+00
-2.692083381462018286e-03,3.727451080889897760e-03,-9.799016105517528885e+00
8.434282773580209849e-03,3.170124483093376359e-03,-9.808319154692703989e+00
-2.112196859438249946e-03,2.984422802226133209e-03,-9.801577671788905377e+00
-4.908039570974866671e-03,6.836626482604506866e-03,-9.801330000921174346e+00
-6.414529222934551439e-03,2.358768140670427366e-03,-9.793037898623811799e+00
-2.474637185192103423e-03,2.322373808302294861e-03,-9.798514731076958029e+00
1.047331405027000523e-03,-8.765476912158849665e-03,-9.796276456704045899e+00
-7.341363554585642222e-03,-1.310779405080583207e-03,-9.787963094430676136e+00
1.137801684900108939e-02,-2.553022834606208640e-03,-9.797560670373538727e+00
-2.675330535749053263e-03,1.514633447361521347e-03,-9.796912469429043924e+00
4.398268822640006778e-03,7.562972097174377323e-03,-9.808241257202057639e+00
-3.094565903679736153e-03,2.274806888129470017e-03,-9.793939852547293157e+00
-2.063633990574733398e-03,3.108571980940825607e-03,-9.800875733695036729e+00
-4.856110036347449643e-03,1.488655323072898915e-03,-9.810120436242156572e+00
5.619246195033790817e-03,-2.210724091959431618e-04,-9.796064669661298296e+00
-1.064519791752520719e-02,1.299793832811590479e-02,-9.799797035688406766e+00
-7.552001983742467504e-04,4.228373517566917823e-03,-9.803243317798438383e+00
-3.021656373764550294e-03,1.182394831422423336e-03,-9.801387245799466186e+00
-4.246016930098846058e-03,-9.362850852677444963e-03,-9.797704995731997712e+00
3.442499108720465262e-03,2.216504476304840404e-03,-9.810548635433624654e+00
8.397277482259637906e-04,3.283899742895410399e-03,-9.793569081553556543e+00
-7.968119068388304638e-03,-1.110936575811251846e-02,-9.798830060788818130e+00
1.642105862165517838e-04,2.331049709313461667e-03,-9.797077260473706417e+00
-6.785848215857353399e-03,1.716083802283723588e-03,-9.805789215386642610e+00
2.056190024826721249e-03,4.578813714022205231e-03,-9.801455223029760688e+00
4.400887706867640838e-03,-2.605806505574003677e-03,-9.806885992011252995e+00
9.146570644083614268e-03,-1.008388990642926537e-02,-9.803748811956841891e+00
-4.826180880134573088e-03,-3.649529470183695244e-03,-9.802195896296664657e+00
4.457864839341475413e-03,-5.119007709519857001e-03,-9.807210885290144731e+00
6.659442374081158203e-03,3.227653029292606459e-04,-9.803076434397397065e+00
2.193705279998372799e-03,-6.248817814635712446e-04,-9.807105689962599016e+00
2.843493503154373957e-04,1.747358404598395277e-04,-9.803569182817268413e+00
2.091210801282653107e-03,3.079593173222727655e-03,-9.793698727143613780e+00
4.516675342953157569e-03,-1.096035667120442286e-02,-9.806531796760138420e+00
9.150746065595240578e-03,-4.050621545006000634e-04,-9.795472475448086414e+00
-6.091668611311123853e-03,5.239032158439827468e-03,-9.796248457477711113e+00
-2.058531028797509245e-03,-2.396773343173526100e-03,-9.801798365825481696e+00
4.215736382162411401e-03,-6.735762617039798769e-03,-9.799944914204269608e+00
-6.019479650305900814e-04,9.866004110891963413e-04,-9.798065893804089654e+00
-2.217410675718500639e-03,-2.891100928481479815e-03,-9.803236089798367914e+00
-1.506266083920015063e-03,4.931543712578844926e-03,-9.800622398817536052e+00
6.292406071505358446e-03,3.083648592738292508e-03,-9.804842876968464793e+00
2.177036804363525688e-03,7.734669610562252239e-03,-9.801602718153878513e+00
-5.660147456687233958e-03,-4.970597826842089798e-03,-9.807123672920852187e+00
-4.513525099906173614e-03,-2.544002957742330824e-03,-9.798455132898951092e+00
4.559508788393095910e-03,3.191148696882791045e-03,-9.808368831740549965e+00
-6.468596611428316032e-03,4.739988985894809902e-03,-9.806793881562096971e+00
-6.960509137775588821e-03,9.391515323181580041e-03,-9.806535152235644759e+00
-2.894281040804417421e-03,3.553131846757388770e-03,-9.801907453405656057e+00
-2.258580898951534355e-03,-5.646453751271296104e-03,-9.810986089588437764e+00
3.904804477357244012e-03,1.131078121293035066e-03,-9.796288580072829433e+00
7.422542539368126406e-03,3.428306960030301238e-03,-9.794906626265012406e+00
4.513560401824960361e-04,2.843279343035143465e-03,-9.798767141142105785e+00
3.638412182858263410e-03,1.045499420074861262e-03,-9.800022057114919249e+00
1.111520553287301434e-02,-2.456545122967807894e-03,-9.796699248784983993e+00
1.495895495090459422e-03,-5.462678491766277331e-03,-9.812002384501441909e+00
2.527329634711745002e-03,7.562989120565560136e-03,-9.794572957736745522e+00
9.631149769546370294e-04,2.048250085496328924e-03,-9.801468458277684093e+00
-8.107989057355948674e-04,4.694789808827490654e-03,-9.798403689464874944e+00
-6.121276285175067736e-03,9.092835236086883183e-03,-9.798493593397479273e+00
-2.325061144885901248e-03,-1.822591772092709570e-03,-9.803822041417143751e+00
1.016886640247771992e-02,4.907000060785963839e-03,-9.790208099954853083e+00
-2.819053061575051665e-03,-2.571557022364982185e-03,-9.798884914972090243e+00
-7.525896506958178363e-03,-3.671092245913420635e-03,-9.802667558176928253e+00
-5.872000142221826379e-04,-3.749972665789228724e-03,-9.798143189425074340e+00
4.648552719824779016e-03,-8.720308718268563949e-03,-9.805196797931943209e+00
7.280800242131429956e-03,-7.608613538396931386e-03,-9.800388618856754164e+00
2.156359959429944833e-03,6.463987751131577107e-03,-9.809018688956465226e+00
5.332494781050978357e-03,3.923887489952927222e-03,-9.804015396008058048e+00
4.190905016490689000e-03,3.331102735802895891e-03,-9.801244541914483577e+00
-2.187604572136129383e-03,6.987487099192279949e-03,-9.800536469776101711e+00
8.616237160987488212e-04,-4.297676969293688122e-03,-9.800291695775980472e+00
-1.287009064754802415e-03,1.454257755323972020e-03,-9.806596095235658339e+00
1.725946569028552480e-03,4.142762488563787870e-03,-9.804301434090849199e+00
4.896679956221578617e-03,-3.462023984110702054e-03,-9.804577076659066748e+00
3.347609149299632207e-03,1.048178890764553221e-02,-9.795647335492201790e+00
-5.016545452149044626e-03,1.646179019220677569e-03,-9.800793426230649530e+00
-3.962046698435648176e-03,3.837595901512690956e-03,-9.803541190443201714e+00
5.957627293386729035e-03,3.638512334465426922e-04,-9.804993837983230875e+00
-2.113661968408430455e-03,-6.239049274777880988e-03,-9.802665155645335915e+00
1.374245694824398692e-02,-1.346505814473887216e-03,-9.802998806946536803e+00
6.326658301669947464e-03,-2.881962343707059407e-03,-9.805565260930080740e+00
-1.143460698719562358e-04,-1.713255188538102478e-02,-9.797936084686549307e+00
-4.681308387409215295e-04,9.327642228866447199e-03,-9.805671633058393510e+00
-1.920243726678967080e-04,7.488076081249169479e-04,-9.798488631730249310e+00
-5.998538239615687842e-03,6.915399376013289974e-03,-9.802632749041139348e+00
-9.742713833300217091e-03,-6.551009628308753982e-03,-9.795751537975254664e+00
4.025664964987821400e-03,3.501243929382218340e-04,-9.799528745129858720e+00
6.379870955574344638e-03,1.299584944643698316e-02,-9.805438614758983817e+00
1.209214616784983452e-03,1.921287354552381850e-03,-9.798589283432683317e+00
2.718188769100590794e-03,-6.543651275801976898e-03,-9.804453982818303714e+00
-3.821215172234528924e-03,8.907604614986920069e-04,-9.804134612460090992e+00
1.580639637381125312e-03,7.407251286276670885e-03,-9.804140923408194652e+00
6.665118176592234149e-03,-5.637063899894541145e-03,-9.795832479948547444e+00
2.633192582374459332e-03,8.265484153893131174e-05,-9.796688356813158194e+00
5.099003703339657738e-03,-1.106896783352572270e-03,-9.809944045142298563e+00
6.795248217373760962e-04,-8.806039566548578548e-04,-9.803885549254264475e+00
-6.334307515456162954e-03,-7.677636563196066875e-03,-9.805769548940476810e+00
-5.281708730781514705e-03,-2.501061603551337333e-04,-9.809412620113805659e+00
-6.802024064836759490e-03,1.200456743097599172e-02,-9.796632332776452401e+00
-3.779787816065325722e-03,4.873384705171050595e-03,-9.802425242734551958e+00
-1.423591399098944089e-02,6.391500449457327955e-04,-9.804473087449080637e+00
1.715235318238905998e-03,2.502023038787685224e-03,-9.805282757442070007e+00
-1.413244499931776664e-03,-3.091762845127255899e-04,-9.802599306361329923e+00
-7.244172233125851200e-03,-1.773943778274371646e-03,-9.799156749447440973e+00
-7.746491833244971599e-03,-1.589945177561043069e-03,-9.799640498591797311e+00
-5.882732625564589604e-03,6.014756695858246901e-04,-9.804234102732857892e+00
6.245471303443342337e-03,7.109997535295204708e-03,-9.805647542972637964e+00
2.853140772620237423e-03,-6.198123712432197265e-04,-9.807431647568462196e+00
-9.474981597914648723e-03,-7.701351632439684333e-03,-9.801902923748208707e+00
-2.346589336867883901e-03,1.773327279723974125e-03,-9.800833363686892952e+00
6.346620519153029242e-04,8.201869517681481103e-04,-9.805584010347729418e+00
5.874787526883023560e-03,-3.923312456887205132e-03,-9.805383870825444603e+00
4.504569612263892298e-03,-2.024169872066442638e-03,-9.801868436612023672e+00
-5.678492559224836622e-04,6.224502401427662191e-04,-9.810113627013263837e+00
4.529321165412105235e-03,-5.066335078029893246e-03,-9.798553256888164142e+00
2.586517242451859462e-04,7.467113588224977836e-05,-9.794807707045883660e+00
-4.045214429780227133e-03,5.286958382947532648e-03,-9.804999837435849130e+00
1.476351464152255051e-02,6.307692500630849436e-03,-9.800605596046709778e+00
1.094275275962623868e-02,8.444760204335367143e-03,-9.802566364797479892e+00
-1.988093951549713394e-03,-6.196133900814681898e-03,-9.811647378124888519e+00
5.651223483950021040e-03,-5.601664934103274020e-03,-9.796154129558372503e+00
-2.109307682840156316e-03,-1.291588120412282339e-03,-9.801935106327068326e+00
-1.234845148661439318e-03,-3.454682605807451231e-03,-9.800756110693843226e+00
-4.178759928530049496e-03,5.555581049461581506e-04,-9.802481870133776809e+00
4.441267725724904261e-03,-4.106131016932827379e-03,-9.801489144571316814e+00
5.521627921725704097e-04,2.904530091411182540e-05,-9.800988368513944948e+00
2.089180597628672188e-03,7.585503238343437602e-04,-9.792815146523695446e+00
-2.385996789978178829e-03,4.285573100279578031e-03,-9.798907256779580521e+00
-1.112060853843633223e-04,-2.733682972286273060e-04,-9.811825713678953065e+00
6.232237848196863286e-03,8.707358123567258100e-04,-9.798643386033093705e+00
-1.295280208452661772e-02,-5.457899250287053666e-03,-9.809975526762599429e+00
-1.466254069917390405e-03,-2.958113062747894616e-03,-9.804508351130111876e+00
-4.586922512628842158e-04,-3.427671153528425840e-03,-9.808380905169293840e+00
7.265828907383859239e-03,-2.324091220684086807e-03,-9.799811330879464322e+00
-4.718780270383920658e-03,4.517399164759398900e-03,-9.804272162970692150e+00
-2.644195116640023820e-03,-1.474159448329721324e-02,-9.797119056564651984e+00
-5.678365456387900016e-03,9.307836642929867435e-04,-9.809534173269836899e+00
-3.123010384056254963e-03,6.906109110141717914e-04,-9.808687573167874874e+00
-3.635925353035318781e-03,-3.452488902757829513e-03,-9.814872037247505787e+00
3.438705259472249476e-03,-2.501200285736195419e-03,-9.795906911907486858e+00
-3.690719089487857086e-03,6.907400639177414294e-03,-9.802238117877573487e+00
8.309848432375081806e-03,4.806859599886458348e-03,-9.804834721416256116e+00
-9.094554007201478482e-03,3.561821293158565303e-03,-9.795863658202662805e+00
-3.587510045455018681e-04,1.067441561433219062e-03,-9.806176010219946448e+00
1.145483687484236297e-03,1.353088495555118329e-03,-9.800678128918518084e+00
-3.218085198164906662e-03,-5.059126176927425562e-03,-9.802492095187790966e+00
2.888286269874086403e-04,8.013270206954383607e-03,-9.806447024730744033e+00
7.365969060660673522e-03,-3.873641080461647478e-04,-9.803218770350618172e+00
-5.199457596828750694e-03,2.968717501677202442e-03,-9.807130280495671926e+00
-3.557312248709856069e-03,3.912135072566525992e-04,-9.803550645897670890e+00
3.164305285900906751e-03,8.224844631030372291e-06,-9.803242246648055769e+00
-1.512959842031014928e-03,2.132076469273244939e-03,-9.800837755648940330e+00
1.895162485000444617e-05,3.673264678358720194e-03,-9.794503156762765173e+00
-3.763047704557114306e-03,-5.315884167207089207e-03,-9.803823263256699505e+00
-8.731549554514490873e-04,-1.253751859723366800e-02,-9.791427028792943688e+00
3.352794791706300431e-03,3.301467465558521625e-03,-9.799465657300787669e+00
-5.716327992999171818e-03,6.102239793777052522e-03,-9.799173349630875052e+00
6.248329448025964801e-04,4.536705354008698475e-03,-9.799981080591713578e+00
7.014425138829038023e-03,2.514563508582119602e-03,-9.805565664326840292e+00
-9.032825073385597481e-03,4.811935583659368056e-03,-9.800312149318253674e+00
-1.035420081161953464e-02,5.572474063060789233e-03,-9.802184235983991911e+00
-3.063967507257666333e-03,4.340610459594501300e-03,-9.809554461351163823e+00
2.509180549293532278e-03,1.008663870421632695e-03,-9.809433897036996086e+00
2.834599880622067601e-03,3.649002447696650733e-03,-9.792444818815081220e+00
-1.753634573728992492e-03,-1.635234826581364069e-03,-9.804283061850203040e+00
-1.815686146116536571e-03,6.358840629357384935e-03,-9.805686424300025905e+00
6.747746392595835015e-05,2.679955251144850066e-03,-9.810958135784277445e+00
-1.998810372799159334e-03,6.069638940449002124e-03,-9.816066227158726676e+00
-2.722252754155046663e-03,5.914432179363675671e-03,-9.801466332661130210e+00
-3.246156000220601790e-03,-1.465168080805413341e-03,-9.804577739724885888e+00
2.291332888205828422e-03,2.788242708384939487e-03,-9.804532372700329290e+00
-2.629951894777305364e-03,6.155157375210516812e-03,-9.803537767686471227e+00
-1.055409115433408916e-03,-3.667469364348220455e-03,-9.805712319952140987e+00
-8.327089709660265640e-03,-5.299004726885846173e-03,-9.801108761235264311e+00
-2.277526614449462000e-03,6.014770416052924817e-05,-9.798547983921165994e+00
1.461900960044540745e-03,4.505073323483240258e-03,-9.809243873967831817e+00
4.193117203207946675e-03,-6.114098873859918556e-03,-9.805321891824492653e+00
-1.016720333706513761e-02,1.874516385461047095e-04,-9.800323445823657664e+00
7.260579442961689542e-03,-2.410487904574758200e-03,-9.801538614019845497e+00
-8.687809646993716961e-04,-2.832175948348368728e-03,-9.796150408398567322e+00
-1.033058486418622461e-02,-2.685312379804205042e-03,-9.806085400546274755e+00
-8.118024632366707335e-03,8.435745121453890050e-03,-9.803499658164207986e+00
3.683169860502679121e-03,-2.114409268786449081e-03,-9.786518717617100904e+00
2.221893219710514063e-03,-1.304497276478676533e-02,-9.798675283284474347e+00
-5.525024663203303814e-03,6.185090502016590700e-04,-9.796416727687363490e+00
-3.830139298728983590e-03,4.348519305556357469e-03,-9.798008938920107269e+00
4.826027676548338497e-04,7.531060828760063192e-03,-9.805626111967645997e+00
-3.422075142661301292e-03,-2.682588099416472523e-03,-9.786813354740251825e+00
-1.542387603573929216e-03,9.419215580513959699e-03,-9.796452649241565780e+00
3.795239223697876359e-03,1.624425157440631583e-03,-9.812466780122980126e+00
3.760551782567267062e-03,-4.231943987255935152e-03,-9.804126752461788996e+00
3.279774097927618329e-03,-1.988068798434744489e-03,-9.798483126275904453e+00
-2.443198956805533398e-03,-1.491321449838349392e-03,-9.797600177959600032e+00
-1.476178036675529666e-03,-1.957403362295276165e-03,-9.805943541918196615e+00
8.993534452803868262e-03,1.496194868750829257e-03,-9.807610664600270312e+00
-3.967337888808188974e-03,6.842063314050101687e-03,-9.797774596262877722e+00
-4.400471349642758739e-03,9.376306961925200134e-03,-9.799411735489703901e+00
-1.570648983840181642e-03,-6.206630241214027141e-04,-9.801850106803074780e+00
4.794598109232404981e-03,-8.736562446255868213e-04,-9.797766062881276383e+00
-2.409217741903466568e-03,-3.140483945824463358e-03,-9.805525998241368058e+00
8.965330212563169410e-04,4.115615369915791126e-03,-9.804420067262269001e+00
1.998708442443799128e-03,-8.162473575795775593e-03,-9.798858075611589058e+00
-1.058098817794511474e-02,-1.803025660153336710e-03,-9.809816265652539613e+00
2.055409968127534966e-03,-4.254321007226902381e-03,-9.807846360050858081e+00
-2.129579669607920694e-03,9.344392834681799348e-04,-9.803123959239833596e+00
-7.578273279916242916e-03,1.574788261420945797e-03,-9.800947472909696145e+00
-1.508266711874529670e-03,3.340725369770202423e-03,-9.795041935801478417e+00
-6.116017095257100453e-03,5.400454824888211401e-03,-9.805760330682010917e+00
8.685760156762022469e-03,6.912897200248032878e-03,-9.804133356120786402e+00
-2.938124997048868238e-03,-5.882574903344747752e-03,-9.802654043802903061e+00
1.914786710504911334e-03,1.398665036442426658e-03,-9.798926874769009032e+00
1.221048957890232597e-03,-3.452116510819814264e-03,-9.802571205589455161e+00
5.144993635102246450e-03,7.692905210196100858e-03,-9.801103029799659083e+00
8.630276668685443048e-03,-1.074392395727007121e-03,-9.804669849930688130e+00
-3.127900788698512180e-03,-6.660079838247531456e-03,-9.806797393270866081e+00
3.474942522742340261e-03,-8.658692444720618789e-03,-9.804988750181738766e+00
7.831570264491580918e-03,5.882700829790209890e-03,-9.800827162240096868e+00
-7.468409384280336573e-05,-3.497022188715606314e-03,-9.794476455268389614e+00
5.879448401445563216e-03,-3.545868107106456930e-04,-9.800950484517397143e+00
-3.024680942931079215e-03,-2.691918266261921974e-03,-9.800995224866328570e+00
-4.573070458006724820e-03,2.025313275586150194e-03,-9.809147990628503067e+00
-5.422149245479773033e-04,-3.716251262562735285e-03,-9.811499583838623195e+00
-2.441597912986175154e-03,6.735903786173312764e-03,-9.807061344207442133e+00
-3.613852582151994767e-04,4.794846523396027217e-03,-9.800201886410224716e+00
-6.236598484771218275e-03,-1.818437079062259782e-03,-9.798904716851767560e+00
2.788424219873919269e-03,-2.571517428423641775e-03,-9.802174429948040668e+00
8.539173970407700973e-03,7.068994095336274784e-04,-9.793788644820853762e+00
-2.665027198539543247e-03,-2.420651887482678719e-03,-9.800892599937972349e+00
-3.163250480816922131e-03,2.050584265949287159e-03,-9.806671168612099976e+00
2.837626832900248548e-03,-1.824440687141813591e-03,-9.806326943249006334e+00
-6.760806848288209055e-03,1.062924301407533988e-02,-9.796546742068874991e+00
-1.153081771471194290e-02,6.564512180439166858e-03,-9.804379160522156411e+00
-4.453601702462354518e-03,3.931383092240224239e-03,-9.800460436438184431e+00
-6.823736968506847154e-03,-1.536106690046435720e-02,-9.804474291698815236e+00
1.723778100181851776e-03,1.142404164833364481e-02,-9.806468717982385286e+00
-3.817361849187273035e-03,-4.047558848922249049e-03,-9.799181427998510330e+00
-1.755918676754539536e-03,2.972444653770369848e-04,-9.800756650277032023e+00
6.201522708852456878e-03,6.118716114226084059e-03,-9.798305579227365669e+00
-6.975379856404989760e-03,-1.169743754219142173e-02,-9.797835340673525906e+00
-4.612010473885916340e-03,5.238601810538006352e-03,-9.803076404608606964e+00
2.564261669284240847e-03,6.369651654506073082e-03,-9.794054811556954121e+00
2.204880957083376735e-03,-2.991815661914554517e-03,-9.800668484528072710e+00
-6.591199492711357667e-03,9.722820005441331378e-05,-9.797205549112591783e+00
-2.838566072307308844e-03,2.645986044280714856e-03,-9.808139117637139748e+00
-4.916135598098851991e-03,-2.402648748042709222e-03,-9.799710441539470906e+00
6.138853145950261964e-03,3.963703906195755432e-03,-9.803191381996549936e+00
-6.065463633420866210e-03,7.439933434512199144e-04,-9.802088236006035515e+00
1.082420458163169032e-03,-1.818586651617439551e-03,-9.802200814677064500e+00
3.071989440666921152e-03,9.068931897078627872e-04,-9.812451424462830474e+00
2.345240809351545807e-04,-1.570792359936136126e-04,-9.811132842976192592e+00
-3.153534852542312292e-03,8.918401100262870335e-03,-9.798150197157426078e+00
-6.720939665177229697e-04,-1.064149607089994072e-02,-9.803080084458358101e+00
-2.836636707243373259e-03,-1.285346359985007313e-02,-9.801172918404668977e+00
-3.399842295345866829e-03,1.350127288011920747e-03,-9.795905119109502124e+00
6.729296733242459000e-03,5.034380161779343152e-03,-9.801264201444396917e+00
-8.695010451899645720e-03,-3.377982852942165107e-03,-9.808880904194202444e+00
-1.976236849203349272e-03,9.186102367361196827e-03,-9.793283991016483725e+00
9.743104250863499505e-04,5.743788590568994420e-03,-9.798921006954389057e+00
1.279621008445938060e-03,4.084686436079314718e-03,-9.798245444362397194e+00
-7.828354839409168084e-04,9.903906977125594494e-04,-9.811122361392119018e+00
2.944557940325717455e-03,8.970033681850290725e-04,-9.798556020253656129e+00
-4.290005485206009432e-03,-6.172886001835554103e-03,-9.799551076398271832e+00
8.282464640723110000e-04,8.286293311822847188e-03,-9.804592520307013004e+00
4.745396131432665782e-03,4.851358179646182538e-03,-9.802879998659536298e+00
-4.515185224365728806e-03,2.783740131767495612e-03,-9.801612967415312738e+00
1.021280641113089110e-03,5.461799286236131840e-03,-9.803412958606863015e+00
2.956400916034978860e-03,3.407899769671429713e-03,-9.809771139735465439e+00
-4.944179159054998274e-03,6.917282234324298104e-03,-9.791818659360536969e+00
5.071623877822625283e-03,-4.398616844216592624e-03,-9.800168182316438603e+00
6.282584945756485191e-03,7.101175430912476209e-03,-9.801265053042682140e+00
5.652872604920056512e-03,-6.837961957256180829e-04,-9.800166072328833522e+00
-1.163949130008024718e-02,-1.225425536384865599e-03,-9.796404910544012523e+00
4.192792828469252275e-03,-5.584248291293442482e-03,-9.803702494965518710e+00
-4.615710049210889135e-03,1.943514744182019529e-03,-9.791990115143430984e+00
-3.496745647172441827e-03,2.701252101051553750e-03,-9.801973975883338852e+00
3.202183295949719097e-03,-8.686893402617084856e-03,-9.803997704413614400e+00
-2.299932208847377951e-03,2.519500845407135828e-03,-9.796850894449201874e+00
-1.551857485865273164e-03,-4.072215228332670602e-04,-9.806640704252970409e+00
-1.565649850922386493e-03,1.059870902887233377e-03,-9.805961281667492813e+00
-2.450813173114903525e-03,3.487311474809533587e-03,-9.807567146673745739e+00
9.124607622980182922e-03,4.271940836798789878e-05,-9.806271376542330387e+00
6.033088907689673677e-04,1.214748751201623995e-03,-9.794686854687435940e+00
3.226611230561301710e-03,-5.198152829518362140e-03,-9.799931311271096845e+00
8.156635431665634414e-03,5.143474423825738703e-03,-9.799158331563276647e+00
2.632116425516983511e-03,9.771256633229434899e-03,-9.808964520460326852e+00
-2.022431353867726019e-04,-3.040594631623698418e-03,-9.807344878220984441e+00
-4.093524989779082773e-03,1.134953039080630402e-03,-9.799946130580632797e+00
-9.790407855854435168e-04,6.301506188702841668e-03,-9.793793120733690571e+00
-7.269461854102972874e-03,4.427054783059148485e-03,-9.805557339102351833e+00
-2.490959335258001103e-03,-1.616793802291215717e-03,-9.800497721349566760e+00
-3.369885247244187778e-03,5.474546503133688631e-03,-9.800121160588574298e+00
-6.853220226194257914e-03,-5.079948074719400734e-03,-9.795565302701929156e+00
-2.380376780590445166e-03,4.389007769726444366e-03,-9.805202010479639796e+00
-2.800699927418546283e-03,-2.133603863860075028e-03,-9.799360359682001587e+00
3.944211196395186123e-04,4.968375570162979031e-03,-9.798919086889577912e+00
4.404772046828183199e-03,-6.531256599679847487e-03,-9.799859506395771191e+00
4.550647419650718259e-04,-2.646922818199623842e-03,-9.807182458318070672e+00
-3.413391093860784157e-03,-2.013450611555661976e-03,-9.806662645933302613e+00
1.858690748560561492e-03,3.384273344672254422e-03,-9.800026671005586110e+00
8.768414994221202310e-03,3.844797704524316549e-03,-9.801249656524786857e+00
-2.573079755934429454e-03,3.160970741684531859e-03,-9.801625874232708924e+00
-4.180388505100007986e-03,2.363232184831507137e-03,-9.803597614053924048e+00
-7.928666166751530131e-03,1.200067867437796371e-04,-9.802929578047269388e+00
-8.234940264231088020e-03,-2.856395521000256680e-03,-9.818400062116095839e+00
5.293462519092684282e-03,-3.646379941263990301e-03,-9.798480097382354259e+00
-7.722188367949732804e-03,-9.284517881085986232e-03,-9.812151338187774741e+00
1.256160553626686424e-02,-5.952031276422721506e-03,-9.811419925005253617e+00
6.279852620080955163e-03,-6.058091824078506646e-03,-9.801709158549105183e+00
-5.400367677268438915e-03,4.914913379365793908e-03,-9.805372600560358975e+00
1.518672917529265013e-03,5.195553353221690068e-03,-9.796397802909632802e+00
2.952598267363513995e-03,-1.542772588162063087e-03,-9.793595798493235804e+00
-3.830573423278922206e-03,-8.639542968800117875e-04,-9.797427148461693491e+00
1.005219038115735992e-02,-2.224367473222640858e-03,-9.798755162898450166e+00
7.167960195564431099e-03,3.555060485502084793e-03,-9.797306507008542553e+00
3.549535741517577739e-03,-2.913415492135902705e-03,-9.806415945368279097e+00
1.855998987181526824e-03,-2.961271634819348368e-04,-9.804722667742213460e+00
3.062389839174616945e-03,-7.282974757804842533e-03,-9.809630308525871811e+00
9.554167005634788933e-05,1.123750460799219190e-02,-9.803582890545872175e+00
-5.715414125825139628e-03,5.933830818495455404e-04,-9.802218811713004243e+00
3.021589692304995321e-04,1.288642515733013369e-03,-9.800907447436841835e+00
1.667227431964611291e-03,-9.806914687147825962e-04,-9.809688350123217049e+00
-8.611637597972197911e-04,4.812396465935724933e-03,-9.802220760151033829e+00
5.622770607165695350e-03,4.638060397339574276e-04,-9.805204417512070947e+00
1.708933004221735094e-03,9.158093360746419678e-03,-9.802645729450260248e+00
5.057991450886698166e-03,6.458497634430045500e-03,-9.800919014127648765e+00
-1.352631548971697717e-03,2.301580573036281739e-03,-9.801643413983763153e+00
-7.742841548810800063e-03,-1.413567238954523391e-03,-9.808367140816873331e+00
-4.606143991428909498e-03,1.509079325053701379e-03,-9.799252766752065469e+00
8.818086170648806830e-06,-6.629735524599159567e-03,-9.793346700363855462e+00
-1.671555361006682797e-03,-3.753740531659983167e-03,-9.791254510930201604e+00
-6.455198530609780605e-03,7.013815114401524345e-03,-9.797400634832285959e+00
1.462558670809095207e-03,5.654140844388091123e-04,-9.794540875380263856e+00
-4.771421925720426178e-03,-2.043773564493484105e-03,-9.802117692552052119e+00
1.210677032753640012e-02,3.248723084933848818e-03,-9.811459761496307053e+00
-9.958610069870756434e-04,-4.816126019698918279e-03,-9.799019056825100549e+00
-6.632565665571139857e-03,2.697731549154625940e-03,-9.803161277136499763e+00
-5.161201756033272255e-03,3.996670731549699200e-03,-9.807281861485279251e+00
5.142964291899402955e-03,4.967940686231283286e-03,-9.807905095104725746e+00
-1.772679472264833671e-03,-1.848613750718099916e-03,-9.807220167376899056e+00
3.211751127454390894e-03,2.686405747439440852e-03,-9.803466273865236502e+00
1.728734692177232414e-03,-9.809762012282161048e-04,-9.801034759772132787e+00
2.960051841397541919e-03,2.493467432034935250e-03,-9.806515938261259890e+00
3.246038800769738848e-03,-7.965864309816201791e-03,-9.803624722517181311e+00
-5.905586068062152263e-04,-8.196338585062098656e-03,-9.799524399245614248e+00
-5.976846719899062306e-03,2.365022308059828125e-03,-9.806802370733811003e+00
-6.012865988864660345e-03,3.506959945558175626e-03,-9.807318726019707000e+00
-1.384519608051135338e-03,2.006297714627815079e-04,-9.803762468744549707e+00
1.138822614640173665e-03,-5.898139220273226956e-05,-9.796556945763791546e+00
2.126838794310583272e-03,3.543935368394453191e-03,-9.808544117107281579e+00
8.515346297094843545e-03,4.908460260729603612e-03,-9.809615172124718896e+00
5.330468251679529312e-03,1.536687635684806565e-03,-9.791189504065497928e+00
-4.285817239959115871e-03,-7.706755099033932993e-03,-9.811765920732748114e+00
-1.816482967886143751e-03,-5.235504458326645065e-03,-9.800381841696758300e+00
-4.025936103569675330e-03,-5.518434929830019634e-04,-9.801792389126047667e+00
2.069875464396967596e-03,-5.991687996402951348e-03,-9.799760356229901603e+00
-3.474953253472662373e-03,7.168218140239335408e-03,-9.799948543069888274e+00
4.603545306063783378e-03,5.553597092103118929e-03,-9.796466236571417241e+00
4.489066563632412334e-03,-3.462191336097058918e-03,-9.805366663141089845e+00
-1.457355846302957683e-02,1.098701450823831062e-03,-9.803447476903388136e+00
-7.285866172856720474e-03,1.064022309737293337e-02,-9.801251003004843199e+00
-6.144755612070038758e-03,-1.004608587937556646e-03,-9.800672345640776939e+00
6.345899804985331329e-04,-4.223295541684872912e-04,-9.800639114161537435e+00
-4.657012986412159723e-03,-4.282253196371893326e-03,-9.801497262827659540e+00
5.374532393990911518e-03,6.211867177325114051e-03,-9.809801582959931210e+00
-6.132367478797029481e-03,-3.936917451216066961e-03,-9.808779233627545224e+00
6.577050788645309731e-03,-1.959743610925317886e-04,-9.800668708269659746e+00
-2.551393423135312703e-03,-5.212372579666441422e-03,-9.804400567530214161e+00
-4.943102074476923326e-03,-8.652109419447858232e-03,-9.803481866199671657e+00
1.291796098653668571e-03,1.779415610549933864e-03,-9.801531101845471383e+00
3.614805160434362424e-03,2.460131578433904023e-03,-9.797192313178326728e+00
-5.310547951494258914e-03,9.454307101357729837e-03,-9.797714504274733116e+00
5.681788869394134925e-03,-1.782953158821385612e-03,-9.807725387879015599e+00
-3.911082023138594960e-03,2.333187198940417980e-03,-9.801461846251903864e+00
3.291432044405679606e-03,1.128268811932398204e-02,-9.808127458555738087e+00
-1.497643339791226730e-03,5.173779708191392560e-03,-9.799396221966068410e+00
6.473157283773144088e-03,3.557442782159693419e-03,-9.799850798567600663e+00
1.175942890566017548e-03,3.189248271446814675e-04,-9.803951632088896417e+00
3.759461366835658604e-03,5.805248457464244269e-03,-9.803365923958283545e+00
9.077165051971896725e-04,3.566704401145345642e-03,-9.797663265560007773e+00
5.414654131208365868e-03,6.617057968269366569e-03,-9.797248153498010481e+00
-3.145059509018247653e-03,-4.778357958262636346e-03,-9.809340106083295652e+00
1.087361390564910030e-05,2.211336028219453194e-03,-9.802876922058219478e+00
-2.892768365490492894e-03,1.627707973934082409e-03,-9.803004105053080508e+00
-9.769261843053001111e-04,-1.191687854589762799e-02,-9.802008781335578291e+00
-1.229111657449191188e-03,-5.048992644903580601e-03,-9.790891466641328478e+00
5.351630446130299168e-04,-3.125005650940411526e-03,-9.802886636413481014e+00
3.093984125868206193e-04,5.479619406892934953e-03,-9.807282287771784013e+00
1.085522785203219725e-03,-3.248767602062045678e-03,-9.799138008562728430e+00
-4.412393605883854070e-03,6.856544375890214794e-03,-9.804054985743233530e+00
5.199533832061230786e-03,-5.050460347136585641e-03,-9.811380583731267535e+00
3.892648231182489673e-03,-1.180869219772117361e-03,-9.803649459581684766e+00
-6.117193551142782390e-03,7.700899094607202913e-03,-9.794307688032077408e+00
-7.670061811377454526e-03,-3.238716190578748520e-03,-9.801061579891536368e+00
3.196346833902428963e-03,-6.062907580733968051e-04,-9.794179237601390753e+00
8.376754580186458700e-04,4.609804587258638751e-03,-9.813445924157774058e+00
-3.749530597816337282e-03,-2.069041116400607231e-03,-9.807645952022840063e+00
1.176784522163242279e-03,-4.954479046081124724e-04,-9.794269152615441953e+00
-3.914042253389694165e-03,9.367976173998605752e-04,-9.799282883399230926e+00
-1.083719912230283848e-03,-5.534206054956659730e-03,-9.800467908896093761e+00
-4.935431783800237927e-03,-3.133960522536938936e-03,-9.804303999081444232e+00
-1.212335887813034121e-04,3.027940765328451670e-04,-9.803220167700297694e+00
-1.821531631721255750e-03,2.104026887917300175e-03,-9.805583399930467792e+00
4.901311655661587732e-03,3.000257006364271620e-03,-9.794962698998654460e+00
-5.485796712876274753e-03,-2.020952692566271598e-03,-9.796959650879793813e+00
-6.225206234420832194e-03,-5.018863288957830897e-03,-9.801743230858276590e+00
3.551428517605111253e-03,2.836482761747513679e-04,-9.798427761992286378e+00
2.011773586766199551e-03,-5.694313331169994531e-03,-9.807633995184042774e+00
-2.686846517847269519e-03,-3.918348489328480830e-03,-9.804261440198594357e+00
-4.982293720018830634e-03,-4.043698877643006097e-03,-9.795129855991877577e+00
1.496984351541896211e-04,-6.935175358605120445e-03,-9.795949305129285634e+00
-1.238921946959382686e-03,2.053757214189193530e-03,-9.802724959743335020e+00
1.004686783639406784e-02,1.737413127207512254e-03,-9.798199718131195723e+00
2.023289383695755020e-03,-3.915313782272280066e-03,-9.796488966975530843e+00
6.766824858421685357e-04,4.488262647646474451e-03,-9.806810483050840688e+00
4.102079357198267612e-04,1.366133612660607073e-02,-9.803806333100963499e+00
-3.095614327404669353e-03,-4.492552682965047714e-03,-9.805503000237751010e+00
-9.391313785434922921e-04,1.078066779173846457e-03,-9.797292649377995488e+00
6.818053371465137430e-03,7.168044170480551702e-03,-9.806095163670528692e+00
-6.157549570659658425e-03,-5.031622242559725261e-03,-9.804937674522248514e+00
-7.917956876545897147e-04,4.212261997839460820e-04,-9.795147173545540653e+00
3.800547892114655192e-03,7.217832016875537840e-03,-9.799298767945423094e+00
-2.713098108308586217e-03,9.927231649623489453e-04,-9.800304547792920928e+00
-4.713355266659470999e-04,-2.132250538584656071e-03,-9.801245447523349696e+00
1.693075321177571349e-03,2.943482894198907063e-03,-9.799892084982918306e+00
1.004487582147084793e-02,-5.362888124040393308e-04,-9.804918864179406057e+00
-6.770258333724367937e-03,4.557802394600665198e-03,-9.800756087344241863e+00
8.141506245863870889e-04,2.204323202314905825e-04,-9.810618541709175133e+00
-3.552790790155433602e-04,6.380106934886914383e-03,-9.807442073864860888e+00
-4.799218840327879390e-03,-9.788902086881215263e-04,-9.806822091148060139e+00
4.937798063061782546e-03,-1.605487470219897801e-03,-9.805494950661854503e+00
2.165529786987079042e-03,3.877354055490986762e-03,-9.798443616973793624e+00
6.320591469623646798e-03,-3.875047429320757717e-03,-9.797277524351311939e+00
-6.140057154838314893e-03,9.892664268795592353e-03,-9.797960407554363371e+00
-7.941050913810036166e-03,-4.397293467091397822e-04,-9.808234675950103565e+00
6.167630831707664012e-03,5.252920745556117176e-03,-9.796804854640440041e+00
-1.703934894729589294e-03,8.573466985716163280e-03,-9.793381729892713494e+00
5.703567401076792102e-03,4.664066992408801536e-03,-9.807723464034117100e+00
1.634586240215864933e-03,-1.238065298940402162e-03,-9.811680279909822389e+00
3.557049175306166780e-03,1.989688120347439353e-03,-9.811639736256450917e+00
8.505709155506760433e-03,7.079913705973861146e-03,-9.800101032318504934e+00
-1.729205947737915859e-03,2.516878615915805941e-03,-9.796637840395582941e+00
-3.106895439848516910e-04,-2.344360972402776550e-03,-9.803906902878649632e+00
-2.714089867836838674e-03,3.911918085979620464e-03,-9.800295291899098871e+00
2.086970242217372031e-04,-5.254756331003071490e-03,-9.802133649501863388e+00
6.444015326628766555e-03,-5.122168277776964485e-03,-9.810375756046397555e+00
-7.755452909785294545e-04,1.682209861635045912e-03,-9.808729878837857186e+00
1.714730226837170497e-04,1.012455659775305349e-02,-9.798353494278355669e+00
8.929236801635960855e-03,5.825699045680495132e-03,-9.793894963503708695e+00
1.254053731005599350e-03,-3.617808438174329420e-03,-9.802943843401216384e+00
2.253281140669195250e-03,-1.792008540095409684e-03,-9.791101825884091170e+00
2.856407241214663304e-04,8.943332313057730798e-03,-9.797023259354595837e+00
1.916292750269466124e-03,3.832105879336687379e-03,-9.799983993434336682e+00
4.826312977382709625e-03,3.406615646291644758e-03,-9.807132614208466492e+00
-3.820813545752195332e-03,8.458825063837816655e-03,-9.806099366187172706e+00
1.217291173337886438e-02,-3.386041381562496233e-03,-9.804703230014322202e+00
-3.224059760847443681e-03,-7.845221519381181605e-03,-9.809257753677062652e+00
-5.964243047138153772e-03,5.209296725232782227e-03,-9.803334506730886133e+00
-2.998344164899113037e-03,-1.691722419084165153e-04,-9.802673209567640100e+00
5.668868612918205423e-03,6.288138785296253780e-03,-9.802609700273684723e+00
1.218587344598370294e-02,5.685081561070901577e-05,-9.808526687779064446e+00
-7.980044651790462254e-03,3.474339624692008742e-04,-9.802586360071332550e+00
-8.600181767285778895e-04,2.251100853432264765e-03,-9.810172365987376963e+00
-3.645797721133996585e-04,-7.404636125141342631e-04,-9.805342124483754418e+00
-1.318975220361458527e-04,-3.468757521513095125e-04,-9.804063659506319084e+00
9.010169598143685787e-03,-1.005996073807068590e-02,-9.799952715864115760e+00
-6.949176318591219646e-04,3.434513207520956297e-03,-9.801047114278807371e+00
-4.829530301873721614e-03,3.976203914287677671e-04,-9.803657918885358313e+00
-6.048120203816041880e-03,4.292734208290762549e-03,-9.803486763731207532e+00
1.101024811402657663e-02,6.125600659297941904e-03,-9.807541076336130814e+00
1.148431186320565851e-03,-3.052747388600805583e-04,-9.800726287548728877e+00
6.217006863371787873e-03,4.487669791574949371e-03,-9.809198349814504780e+00
-2.332689711544826735e-03,5.210632376567931115e-03,-9.793380300098897706e+00
5.833419754984144924e-03,3.137793410141837425e-03,-9.805626033197038183e+00
-1.799585435615491625e-03,4.874451627015339954e-03,-9.790643850958391070e+00
-2.213313501583187917e-03,-5.081273916867387434e-03,-9.794241734216036832e+00
-2.018667377021874255e-03,7.059441105742488834e-04,-9.806298117316670115e+00
7.273848837381644353e-04,1.884997762946204062e-03,-9.799102527517000283e+00
5.059798413723755675e-04,-4.430048730555056352e-03,-9.800052150271309159e+00
4.178896073603854434e-03,2.381299504710561888e-03,-9.803723763567290916e+00
-4.289225775576857753e-03,6.299372158579607910e-03,-9.798688600734102749e+00
-6.555085193970312460e-03,6.512883398694014996e-03,-9.805583988883265434e+00
3.049780812182085240e-03,-1.048757176841503061e-02,-9.794272740558250590e+00
-5.947614693754946225e-03,1.112167641895666888e-03,-9.808222970096439397e+00
-7.427322883205849692e-03,-1.377283544842976921e-03,-9.806617280082813082e+00
-5.562545533831540941e-03,1.941289538210578440e-03,-9.801789853335757030e+00
-7.483296107406963923e-03,-5.195079285774795337e-03,-9.803259627316103675e+00
-1.157618758072398056e-03,-2.023044231551463055e-04,-9.801689849115483355e+00
1.975763504844382182e-03,-6.275181375112673030e-03,-9.804066401442991463e+00
1.399425568044391404e-03,1.175793190850151632e-02,-9.804944092217825258e+00
5.075436546126420138e-03,1.709062501809669734e-04,-9.791869040361689258e+00
4.031785883816598436e-03,-1.445681190101259913e-03,-9.798308972804230521e+00
1.125574670125960818e-02,2.972584666294323654e-04,-9.802253963958794003e+00
5.394846059806682192e-03,2.152693380256187877e-03,-9.806768248517750308e+00
4.266835538630810165e-03,-1.036866688204382374e-03,-9.806371839177934646e+00
1.534376575691076463e-03,-4.899028913238128932e-03,-9.809202266033054229e+00
2.970157440561154143e-03,4.873111958135895559e-03,-9.795244687349775603e+00
-1.717743307302416244e-03,-1.098731632709317764e-02,-9.795681200394156463e+00
4.831453572104936977e-04,8.084711578642126469e-04,-9.801143767401002904e+00
-7.121079806474557919e-03,3.651751848905231113e-04,-9.802183804375308895e+00
7.917502272089985832e-03,4.845823719603011698e-03,-9.795557903408928624e+00
3.295383319454493493e-03,-1.517037446620778714e-03,-9.792782484551059596e+00
-4.589978101881857426e-04,3.128178512730844449e-03,-9.801286940242805557e+00
-7.190591841502406035e-04,1.106745710116180392e-02,-9.799461531635284217e+00
2.638934392095436420e-04,6.363387446561977363e-03,-9.798383179741767535e+00
5.891272543151493749e-03,1.293321785438819246e-02,-9.806176834199343162e+00
-3.053498236280638694e-03,4.548968005069941450e-03,-9.792642866607124574e+00
4.248216136008157832e-03,3.839963275187673053e-03,-9.789671042014202129e+00
-5.958293084208370234e-03,1.791617567614732683e-03,-9.809592830923605788e+00
1.836137507305680592e-03,-2.795267872107269798e-03,-9.791658534115759593e+00
6.488217086585781630e-04,-8.217902976051452354e-03,-9.807808326284966682e+00
-6.791698833909149725e-03,5.310532635039350718e-03,-9.806852939404388181e+00
7.703533877416388065e-03,1.873809599480004851e-03,-9.802992884332841328e+00
1.726350194121424641e-03,3.433432533697578469e-03,-9.795878401038564220e+00
-1.222315249371161384e-03,-1.155983257108111548e-02,-9.795487556684385311e+00
-7.774537633823715285e-05,-3.485246013958046528e-03,-9.799347110763356739e+00
3.853252681526299524e-03,8.850994962195492602e-05,-9.804728602144395566e+00
-3.744678300660048056e-03,-9.075070321351583549e-03,-9.799077155626683577e+00
-3.717568727404720746e-03,2.806619279426334716e-03,-9.807733113572398409e+00
-1.390453428171868015e-03,-9.078573574331397916e-03,-9.799042814924094458e+00
4.208975419530699459e-03,5.257718626079619338e-03,-9.809504188344059017e+00
1.027998331674996081e-02,-2.319148407966728585e-03,-9.805562891733552888e+00
1.418110603817440913e-03,-1.395106941137302979e-03,-9.804446327837073483e+00
2.164642129836615025e-03,1.392027176735044329e-02,-9.806057098054262511e+00
-7.052605516359471876e-04,-2.786411390479683666e-03,-9.800940680065959754e+00
3.636595731331671716e-03,-4.057084393425375475e-03,-9.799580086918732391e+00
-2.610507264791536112e-03,-5.743084087514811233e-03,-9.811545508893450673e+00
4.350152682609471043e-03,-2.116532043011553916e-03,-9.803869467459380260e+00
2.310683287639926642e-03,-6.292977865505177890e-03,-9.809437373531757487e+00
-2.026030030199753404e-04,3.617508826187892587e-03,-9.798212478251141277e+00
4.362594872824807892e-04,-6.756892229783977022e-03,-9.792449738925375513e+00
5.068766973396227928e-03,2.353196491335509712e-03,-9.799643244813248444e+00
8.403210301966661244e-04,3.806787668020789137e-03,-9.808954786306870233e+00
1.691331375197879620e-03,4.617289746881774533e-04,-9.809290330686092574e+00
3.347188252198362473e-05,4.502505995959709198e-03,-9.802626694091159720e+00
-9.947826305422487539e-03,3.572797838008992012e-03,-9.794983408767247823e+00
-4.493201841057127208e-03,-5.440877406789810383e-03,-9.800172326824714730e+00
5.070892472805088938e-03,-9.062077787400964072e-04,-9.806346166065923242e+00
2.890896241210355513e-03,-9.790705098266098191e-04,-9.800749587422563636e+00
-3.414354772385515442e-03,4.041768654621092846e-03,-9.806697299194629736e+00
-8.535405814774393168e-03,5.675941694457322696e-03,-9.807189587047261625e+00
2.293850454049525464e-03,4.357022277966402825e-03,-9.807598394094311445e+00
2.394414078709640892e-03,-4.290146969186234630e-03,-9.803290985558749782e+00
-7.515867636117831013e-03,-1.209164687542528885e-02,-9.803976499298226344e+00
1.094251593291940610e-03,1.799855359552219106e-03,-9.802400195842341901e+00
4.220192285178797457e-03,-4.354399652249322378e-03,-9.795408904913307069e+00
-4.644361998134359515e-03,-6.235708411314687567e-03,-9.804783169034697821e+00
-2.482328684385415318e-03,-4.307874068599801785e-03,-9.801074879064792356e+00
1.148373239041432540e-03,-2.027454217051772971e-03,-9.808670336199403650e+00
-1.238728975422619984e-03,-2.281258120729748394e-04,-9.794105597917791783e+00
-4.508727894133143094e-03,-2.214878160250761865e-03,-9.801517967625912320e+00
-2.589670091276301701e-03,-1.970774935779311468e-03,-9.800245717044177240e+00
3.195969004946745597e-03,4.186600484203027890e-03,-9.798853195301530761e+00
-3.914239753317655564e-03,3.006226614742956490e-03,-9.794473480134541887e+00
-7.441096005428517353e-03,-6.414768843541303160e-03,-9.794924040570599288e+00
3.593994386639956691e-03,3.185370555865316643e-04,-9.801874999442722114e+00
3.099543793688739907e-03,-3.390525218887079605e-03,-9.804821701178374482e+00
-9.656457140318392991e-04,4.585736573114616507e-03,-9.804311264844375984e+00
7.865149062219555344e-04,1.531789267754258416e-03,-9.807455473583097216e+00
-2.211306108577789568e-04,3.228379573253052230e-05,-9.806975758018205980e+00
-6.726586977858454042e-04,1.244602305623749867e-03,-9.808450473987699425e+00
-3.144667158822825846e-03,1.961011386163086668e-03,-9.803780363731922520e+00
7.685927860963731248e-04,-3.219009873031555575e-03,-9.801316085780573673e+00
1.234733917836798762e-03,-8.090963862520747160e-03,-9.803114702395060220e+00
-2.656693349980342352e-03,-3.318558994242501795e-03,-9.806802725963967404e+00
-1.105650997485832553e-03,-3.699468305174589619e-03,-9.809470257833602602e+00
-4.007134952284400402e-04,4.647765211285846340e-03,-9.798808932663803262e+00
7.097588262398891838e-03,6.579956007370985419e-03,-9.807022528453160248e+00
1.606184153869745371e-03,4.659624523915715188e-04,-9.793907232848161115e+00
-6.352150233757305163e-03,-5.471868054850901122e-03,-9.796869950565648466e+00
1.125546417276445874e-02,-1.427031795917768587e-03,-9.800490948839941652e+00
6.082093346248288943e-03,-1.341095197930302621e-03,-9.807942924646523508e+00
-1.670673415634384889e-03,3.281772285683390213e-03,-9.806960137399645561e+00
-2.240176733715272105e-03,-2.591464425015293713e-04,-9.806606923714170421e+00
1.118424662102936954e-03,-6.294700923122158870e-03,-9.799478760209661132e+00
1.630392003285207865e-03,4.768319662176038858e-03,-9.802878548277220716e+00
2.201176654793139415e-03,6.668056290340607789e-03,-9.804765591611426245e+00
-5.572614847458968275e-04,-6.058669482149786276e-03,-9.796469809324959144e+00
-7.506120687244870193e-03,-1.217796374014979083e-03,-9.809986134950342773e+00
-1.150868536457987394e-03,-1.855843467709317922e-03,-9.800319325518939806e+00
-3.053109526505050093e-03,2.324316023191473282e-05,-9.808220555991653100e+00
-6.344136384556930573e-04,-7.803196825846643765e-03,-9.804261231040545255e+00
-1.470142331301566713e-03,1.841225546561830453e-03,-9.803969463088600733e+00
5.739531392787604498e-03,-3.246527569514805461e-03,-9.802368032522382535e+00
5.826136429904418476e-03,-3.628660664197810599e-03,-9.809683550178837308e+00
4.578934286936133490e-03,-1.858899831082025042e-03,-9.812179107448859128e+00
1.128593364874378065e-02,2.250730484336427133e-03,-9.804416468418857278e+00
3.147271016737450498e-03,-8.359034084308649033e-04,-9.807333220415680231e+00
7.493558010939737604e-04,5.492288230072701026e-03,-9.800355238890148257e+00
-9.586431101909294664e-03,-5.846824945606862375e-03,-9.801154047785892942e+00
3.830078306915538338e-03,1.817414557246226211e-03,-9.805093863695805823e+00
-4.009891132492636782e-04,5.345238058265319205e-03,-9.803054922366746027e+00
-2.511669159738273618e-03,9.845454842592775077e-04,-9.806926684760920665e+00
-8.753278142354680748e-04,-6.792291697371181415e-03,-9.796352197328806355e+00
8.105966987394516233e-04,-1.276325577957647265e-03,-9.805960022771683882e+00
2.859848635085989344e-03,3.903227109954766211e-03,-9.803280744137948588e+00
2.916324481657143943e-03,6.594099938494914345e-04,-9.799656080192773899e+00
2.168979475322342816e-03,5.314239892102093701e-03,-9.802151168287048577e+00
-7.093880239973040028e-03,1.876064428629124585e-03,-9.814934271763911866e+00
3.008611766328825928e-03,5.876158450770509710e-03,-9.805911355885713832e+00
-2.876473361317770025e-03,-7.090155883088253459e-03,-9.803917284303041768e+00
4.905811790057236152e-03,-5.914486682824409043e-03,-9.803801267697531685e+00
-2.113937858420740154e-02,-2.601810866102357341e-03,-9.795180099751474856e+00
-5.479787242590491818e-03,1.421758194775079708e-03,-9.803218524428727321e+00
-3.858357145379431342e-03,-1.669927422074009293e-04,-9.801873560509912764e+00
-2.907058803968709873e-03,-7.597419060407806582e-03,-9.792649099951763247e+00
-3.669311343485939098e-03,1.084867389122226057e-02,-9.797068570052289260e+00
9.666096827722573531e-04,1.684004824473202397e-04,-9.794773756150499722e+00
-8.466309933260259424e-04,-3.117288448937265578e-03,-9.805059356603033294e+00
-2.164356470935238815e-03,-9.235249372928291609e-03,-9.800651586661134118e+00
-5.372960497688893111e-03,-8.388807135883165692e-03,-9.798528721801742947e+00
4.359401368719847784e-03,-5.585999446038926626e-03,-9.810714387209307219e+00
-8.635242705610281580e-03,9.755921821074267468e-04,-9.803739842976504804e+00
6.440654460178370753e-03,1.899522899543719303e-03,-9.794452375446223158e+00
-8.444028251814375899e-03,-1.234270682100428425e-03,-9.799529867943089556e+00
1.513778606491556758e-03,2.574133623342478479e-03,-9.804915262431434186e+00
-1.168823131181128891e-02,-1.754980667704519393e-05,-9.801364115781296960e+00
-5.981137733259943301e-03,-3.030702272828101392e-03,-9.799697103169565437e+00
-7.306730762003825486e-03,5.317168353615781343e-03,-9.797095788657276927e+00
1.686673308307078839e-04,-2.116340734615287846e-03,-9.803943541107090098e+00
5.081296761210856404e-03,3.260706817298616306e-03,-9.807037829289829034e+00
-5.495004771074576098e-03,-9.459531984110803454e-04,-9.805414418356571460e+00
1.853680003652701750e-03,7.805238372095180122e-03,-9.801669517915383878e+00
9.582050079735117756e-03,5.399583332450274241e-03,-9.791359343962103168e+00
-3.653111950824793151e-03,-1.043105914576268134e-03,-9.796265994505970909e+00
4.780710947010783566e-04,3.767979102178221473e-03,-9.801550276621609825e+00
-8.355016995774500882e-03,-6.583157970218742007e-04,-9.799429645298536329e+00
-5.663319956941002126e-03,-3.444039913369100273e-03,-9.805387179668091591e+00
-5.152230189677413363e-03,9.316306495333574397e-03,-9.802982409855067303e+00
3.508237626028052301e-03,1.972157437836085086e-03,-9.792163030347980524e+00
-2.771239806448219396e-03,-2.938360192070244795e-03,-9.798536988774980472e+00
4.097826258447363063e-03,-2.919657886384092408e-03,-9.802521107677382162e+00
7.073872571513624766e-03,-1.108611005294260661e-02,-9.804881631859009516e+00
4.938725385413321629e-03,2.706012638491401504e-03,-9.808429815787338413e+00
-4.827667508355596229e-03,1.376551003384400345e-03,-9.808577505910104577e+00
4.077620788274400297e-03,-2.029209678089246779e-03,-9.802556629529577847e+00
-1.313371121732037454e-03,-7.280339855843501358e-03,-9.799021438002471385e+00
-2.777017090731739510e-03,9.394260955076408348e-03,-9.803002380350699596e+00
-3.803433729889697888e-03,-4.084400988131366411e-04,-9.795968695067745813e+00
-6.459896034122121489e-03,7.760816868695612214e-03,-9.802255607922111480e+00
3.124368620350424872e-03,1.023216731452058874e-02,-9.795308762840726047e+00
-4.670433762383817411e-03,9.921972522830167437e-04,-9.797947996809288185e+00
-1.997132577525883440e-03,-5.797269065652066108e-03,-9.791341137120966209e+00
-7.129445563801816745e-03,-3.690923260014779381e-04,-9.794226570914883467e+00
4.147011788370522437e-03,3.788390617915794473e-03,-9.808345433972576188e+00
5.462570601292414223e-03,1.083110699878687315e-04,-9.794845660353210803e+00
1.743228848934324842e-03,2.339116911590556971e-03,-9.803292974915711611e+00
-1.697780916898724343e-03,-6.927233823551528710e-03,-9.802003602348662525e+00
-2.659189768965661716e-03,8.739807147863955933e-03,-9.802113543961340270e+00
9.959499496849637951e-04,1.964981939072151396e-03,-9.794974555743770850e+00
1.118581683828074984e-02,-3.162819248090655098e-03,-9.802197064038171703e+00
4.372133159551904076e-03,4.907308675983329191e-03,-9.809826694563572147e+00
-7.583318251397200283e-03,3.700304158756633020e-03,-9.803440278003256125e+00
-3.486604562375498952e-03,1.937360846501104189e-03,-9.803685296284989192e+00
3.154515062598803841e-03,-2.086125947007974081e-03,-9.801887638015877258e+00
-7.299664239940990666e-03,2.762136886531548798e-03,-9.798645988194762069e+00
1.078747613245907089e-03,1.243544820659256119e-03,-9.808869499581195583e+00
4.725415732701424877e-03,-1.686934394310764338e-03,-9.818489880626403377e+00
9.799334759611488550e-04,-2.318252607814871597e-03,-9.799249825332051245e+00
3.875057433886387650e-03,-3.050609696461956816e-03,-9.808539218628748557e+00
9.433390914449930539e-03,-1.790329127986337249e-03,-9.802195327023000004e+00
7.940577859906740310e-03,2.477849823615208003e-03,-9.804058112105375145e+00
-1.603678796678764933e-03,6.210477971862021253e-03,-9.801127465458009169e+00
-3.367321890549395888e-03,1.272287131383794670e-03,-9.803609236284369643e+00
-9.386966621974455723e-04,-1.323603314500659692e-03,-9.799413384922681658e+00
3.572618141107317298e-04,-4.871137233100601856e-04,-9.798550640444092963e+00
2.930987498907851145e-03,-2.889004179278808083e-03,-9.812044026755078363e+00
-6.057585273718097546e-03,-4.335115507693759924e-04,-9.804818652712180338e+00
3.659419665922513006e-03,1.382752903156673346e-02,-9.801533611563488790e+00
-1.092461308131420852e-02,1.053730803908362046e-02,-9.808073552804051687e+00
9.428401890738149355e-03,-3.410484638165482566e-04,-9.812072426171127404e+00
3.191623973781846160e-03,-5.564539066699522932e-03,-9.800125271985855591e+00
5.998466243884891490e-03,2.304225593634490980e-03,-9.801745435529511496e+00
1.533603978366529421e-03,-5.271074885829865782e-03,-9.797582232343916786e+00
-3.570474846282047175e-03,8.513368771367772064e-03,-9.799875399082077720e+00
1.644673828880025088e-03,3.083179941806440255e-03,-9.803309091846156065e+00
7.586774954691588926e-03,7.576824861816228857e-03,-9.811430549204139595e+00
6.560435627419061028e-03,4.034163989608527184e-04,-9.801364240811754058e+00
2.190754288929728285e-03,8.780668356373268505e-04,-9.803342498625502444e+00
7.179117717561189771e-03,5.032532790092792557e-03,-9.800400385961292926e+00
5.135600789206708379e-03,2.167955803919251103e-03,-9.803291031653557752e+00
4.762811235709794172e-03,-1.463619164451267912e-03,-9.801303839998611878e+00
4.818354480778378433e-03,-6.944992849165077323e-03,-9.802434437972207704e+00
2.402138870471434793e-03,-7.250611415987694500e-03,-9.802544993806042939e+00
1.257165346599748226e-03,5.715779476637785489e-03,-9.799352839613190369e+00
1.817909664094107978e-03,-3.173295151854520733e-03,-9.803734037253004630e+00
2.096492410750381771e-03,-7.310030447062016226e-03,-9.811074199642554561e+00
-4.713770903274823801e-03,3.537176766556534777e-03,-9.799222615757321009e+00
-7.831238066083073823e-03,4.324222747008832357e-03,-9.801388559364804465e+00
1.090204698796548620e-03,2.494897817025057678e-03,-9.804164310824150519e+00
4.610381805121575513e-03,5.562316707180011907e-03,-9.802499400132184348e+00
2.716301964208516374e-03,1.845114511459083981e-03,-9.801814440212250901e+00
-5.646009338415485315e-03,-5.282555849070544752e-04,-9.807421714600124574e+00
4.741321800100472585e-03,1.537226442549497526e-03,-9.805237643854940899e+00
3.850639998697379020e-03,3.256060287184219405e-03,-9.795425513256407868e+00
-4.556019372068868464e-03,8.874643224969733582e-03,-9.805644324074581419e+00
-5.339278143448729710e-03,5.054271683749297570e-03,-9.804702350314714820e+00
3.101760998395943457e-03,1.723886827963886899e-03,-9.798569025068683658e+00
-1.026041054270529149e-03,-6.268244920091145707e-03,-9.801991016190298112e+00
7.689211747542919759e-04,-5.535940336691125545e-04,-9.801939902652927472e+00
5.247666462036099273e-03,-4.318376958461654300e-03,-9.801220196287022901e+00
4.944516920768420205e-03,-5.946355375255609095e-03,-9.795364063304562663e+00
3.898482345299209353e-03,1.004186765260614220e-03,-9.797299453028568195e+00
1.308820637259527908e-02,-9.223268913046868541e-04,-9.800406794402915622e+00
-7.705592589880559153e-03,3.184812285078614659e-04,-9.798746766687969512e+00
2.287814070559058156e-03,1.573935346815075187e-03,-9.804721756843438385e+00
1.610018420496279242e-03,1.343639938295495585e-02,-9.796658661170186022e+00
-7.203200113439830327e-03,6.238711509116409704e-03,-9.796861999134780064e+00
-2.978843444367136519e-03,5.422981672562777068e-04,-9.809438307391946665e+00
-2.973604877288274929e-03,9.698323211308111647e-03,-9.799530910036574838e+00
-7.391027133916795722e-03,-1.059254126883354963e-02,-9.793963053439119548e+00
-1.007349483063043824e-02,-4.974145230166715677e-03,-9.807657809479930933e+00
-7.436529366848560092e-03,-4.945726464337144371e-03,-9.797634518281713056e+00
-5.479299103831596508e-04,7.785624775007411215e-03,-9.802453915701793363e+00
-5.927089317088252759e-04,9.340860037990884185e-04,-9.806525314168119678e+00
-4.905208606148642007e-03,-2.479470775198359608e-03,-9.802344639252229541e+00
-8.495619188229733276e-03,-4.680967258202930678e-03,-9.803090550327400621e+00
-1.006182632504729058e-02,-2.291324098368819619e-04,-9.808421664647099192e+00
2.556591176441279974e-03,4.272537724343334524e-05,-9.803848019136530922e+00
1.305778521089087955e-03,-5.094321805634331561e-03,-9.807551719564363779e+00
3.233316521452093062e-04,-1.211685118360008098e-02,-9.809615730117432264e+00
-3.151723255031755634e-03,-4.372735897722674833e-03,-9.801901429784798836e+00
2.353696034389483188e-03,-1.666279451634249120e-02,-9.803204422377366001e+00
1.522120525091903709e-02,-1.046130361777177116e-02,-9.794824631109602109e+00
4.268416443146916435e-03,2.880135905830294701e-03,-9.797219642058292877e+00
-1.837453895824138570e-03,-4.147364102381698452e-04,-9.807963616922052097e+00
8.401888211000442530e-04,-1.901213215815513152e-03,-9.800534350692142738e+00
-3.486030354619987226e-03,-9.551107214140791991e-04,-9.800469463650422597e+00
1.887258674989925012e-03,1.247968677103814547e-03,-9.797211060048555353e+00
7.053536697470400886e-04,6.599999736608365072e-03,-9.801716988628900395e+00
6.990934126438264670e-04,-1.331832885875725014e-03,-9.810054401737872354e+00
-3.991770590882421504e-03,-9.164504978633388269e-03,-9.799905828816033448e+00
3.305923530358619977e-03,-1.854079354787808954e-03,-9.800396130757485835e+00
4.378705336495120060e-03,-5.058796410837809905e-03,-9.801657968374541952e+00
-2.268909280701572172e-03,4.868670079236871368e-04,-9.799553618396203092e+00
-1.697057039278686503e-03,-4.710586253125870204e-03,-9.802585284369319751e+00
8.063742140816862990e-04,-1.630372656819748271e-03,-9.800657919072129687e+00
-2.648798164294310312e-03,3.497340805801367296e-03,-9.803903257741653832e+00
-2.615951150732602221e-03,1.050911082939776434e-02,-9.803811021140949933e+00
-9.899783585624957489e-04,-1.091829501666618293e-03,-9.809302646610575493e+00
-1.012872435137851523e-02,-1.608571150615871600e-03,-9.799083569323153498e+00
2.548715694744068706e-03,-3.750680678213894927e-03,-9.810353786648260410e+00
5.178548845820080473e-03,-1.025946007202135826e-03,-9.802623652436333046e+00
-2.522247714298340234e-04,2.509533514432271076e-03,-9.800754158500671664e+00
3.377551441119255177e-03,4.758932155607555059e-03,-9.805675137049787438e+00
-6.517389802437868708e-04,-1.040414042881515101e-02,-9.807168944902350916e+00
2.707143750160352202e-03,6.302797030168191469e-03,-9.806935546157454553e+00
-7.101508854628975527e-03,-1.541343084497368444e-03,-9.797453482000726410e+00
1.490224406267126774e-03,-1.205193369696352067e-02,-9.792582331484508629e+00
-1.096281818258418219e-03,-3.068466027140352628e-03,-9.809655557615164057e+00
5.326497914675127655e-03,1.380100638451589416e-02,-9.804358594580481423e+00
-2.022196838203790641e-03,-6.081122797784170760e-03,-9.805568455100168279e+00
1.649643058158716579e-05,-4.096059217203946654e-03,-9.805883924880554048e+00
-1.436207532974049063e-04,-3.248371728845584477e-03,-9.805257137518863075e+00
9.401147668120589775e-04,-9.315056548369737149e-04,-9.802046074814292353e+00
-1.120507223296840623e-03,1.361345913119201478e-03,-9.796785875844379987e+00
-4.427646959342383670e-03,2.720541935443991297e-03,-9.801584817531008298e+00
-1.203167223203734570e-03,2.888508180817045065e-03,-9.802794753916465709e+00
7.896086751236918886e-04,-6.989391663866949874e-04,-9.811109878052544531e+00
2.599403829159062287e-03,-7.611218550816141286e-03,-9.807276295215897832e+00
-2.476859358142510965e-03,-8.864775756167026649e-03,-9.794308401726457447e+00
1.597174883328559528e-04,3.893238361610078940e-03,-9.804044939925486091e+00
4.226445983486786157e-04,1.558801283244299826e-03,-9.802806619303462199e+00
6.046442494247649064e-04,-1.135302726991388022e-03,-9.802482792748538287e+00
3.246688293323214420e-03,7.747632390428992261e-04,-9.797861475587584579e+00
-6.433199429371213619e-03,-1.289662527074954713e-04,-9.809065090871730064e+00
4.452714637855961603e-03,9.843998107065255604e-03,-9.800637255477107956e+00
-2.605834292380042392e-04,4.417916280821182311e-03,-9.801864625687001009e+00
4.456495541841649227e-03,7.882404395348784065e-03,-9.792789199803069167e+00
-4.059198048262349819e-03,-3.878132609356284895e-03,-9.808340695677495447e+00
-6.797760008809430529e-03,1.228692267043064073e-03,-9.812833668841200563e+00
4.420784517873112968e-03,-4.351969922209711177e-03,-9.793765108381700557e+00
-4.075424854724093819e-03,4.516594130174744759e-03,-9.800716620677823343e+00
9.319093030730349336e-03,-9.848752735816660754e-04,-9.789094267425696216e+00
-7.486451902162083840e-04,-7.152750859255325565e-04,-9.802559618829095101e+00
7.126261702360429419e-03,3.949561257271863406e-03,-9.801982890201136556e+00
3.187176615912834521e-03,9.138661665207693796e-03,-9.796323398064828325e+00
-7.579449358869612234e-03,3.029663068567478557e-04,-9.806323496854801647e+00
-1.743891612102314815e-03,2.128462511579705212e-04,-9.787433565126791635e+00
4.251817163714736829e-03,8.126653233592812803e-03,-9.795682951752430867e+00
-4.301882609414461531e-03,1.705260713019027177e-03,-9.798882749271928816e+00
5.989114467252421026e-03,-1.783373886567191178e-03,-9.803129466020235938e+00
7.016297322973419175e-03,4.220361198848103512e-03,-9.798983881662302053e+00
-4.898175098940157554e-03,-6.359500696082300225e-04,-9.807301674259838009e+00
6.734587816648257043e-03,-3.564182315257126334e-03,-9.801212773212821361e+00
2.981759679693299532e-03,7.768596060303008255e-03,-9.793634005353824890e+00
1.400948923757133454e-03,3.557184213674650475e-04,-9.803410244056806278e+00
1.772315269540691634e-04,-8.956046116578534211e-04,-9.798571977064451488e+00
-3.027152970689365593e-05,1.721536440769060733e-02,-9.798711225603389252e+00
8.276303011437354798e-04,-6.526765159613868474e-03,-9.791441507491889240e+00
-5.198901727379571201e-03,-7.519389736601328998e-03,-9.806057474223498716e+00
1.975933991871899748e-03,1.079090873317841435e-03,-9.797544814919683986e+00
-4.243860164904085519e-03,-2.768770154550554471e-03,-9.806641023530929147e+00
3.226214552554535365e-03,3.709534185827076825e-03,-9.803910182492691305e+00
2.977916734016709983e-03,-5.478034357728303909e-04,-9.802023167212155386e+00
4.123380539326077236e-04,9.158114309120515828e-03,-9.813375561226234112e+00
-3.909264398017624903e-04,5.677785724586343263e-04,-9.797575343583527996e+00
-1.012352622551430112e-03,-7.727968014374642959e-03,-9.816188821899309858e+00
1.753505809119555682e-03,3.825878745954313433e-05,-9.812964912720584465e+00
-5.581982919000003790e-03,6.565028415185376843e-04,-9.791450956021304108e+00
1.156462546345269618e-03,1.834890776138916419e-03,-9.810505870656076155e+00
-2.684684144893321306e-04,-3.662550452024800497e-03,-9.804903239231373746e+00
1.303527898425467556e-03,-4.797462078436344826e-03,-9.801205058489943056e+00
-2.107515424816391175e-03,-7.546554670180294529e-03,-9.799627324872576040e+00
5.351058995549768608e-04,1.126991391020037243e-03,-9.803930479962289724e+00
-4.014556246320251376e-03,4.464745463300475239e-03,-9.800310054120554781e+00
5.696404667024705833e-03,7.892972753422268853e-03,-9.805754047024917597e+00
2.911803914927920452e-03,1.516367017162041989e-03,-9.805604961941233100e+00
-3.383021208466984071e-03,-4.232917077565458500e-03,-9.805972727858749849e+00
4.238252336226507218e-03,1.129641759492891777e-03,-9.796680361333768516e+00
-7.497294888143955132e-04,5.488593685188053808e-03,-9.802793458020140349e+00
-4.484943905833817918e-04,-7.037312997357225448e-04,-9.794688598448381356e+00
2.065722846987988730e-03,6.132226480200958160e-03,-9.808733647827152069e+00
-3.226067839009416193e-03,-3.300605933503104970e-03,-9.805294703058548222e+00
1.168581007979999390e-03,2.861854166233727785e-03,-9.796465639248591373e+00
-1.222007034803327102e-03,-1.129546521187319583e-03,-9.801001888117612637e+00
-1.475960961735381773e-03,6.168681839244366354e-03,-9.798267938248192976e+00
6.970807464544390673e-03,-5.777307350815674876e-03,-9.802683145061498848e+00
-1.992434470287008947e-03,-2.170249878996385190e-03,-9.800080639481672407e+00
3.305187149044339166e-03,2.853768376175516968e-03,-9.804493999141909555e+00
1.735879013017648659e-03,2.564425378785940932e-03,-9.795553740825992506e+00
1.687541682560504512e-03,-4.972484152869371780e-03,-9.802293553786149971e+00
1.004019927841542405e-02,-1.211987420997971601e-03,-9.808561703292578926e+00
1.430258558341039859e-03,8.491418906489923632e-03,-9.800210067179996543e+00
-1.084788598797496771e-03,5.825820132057726516e-03,-9.809098612614366886e+00
8.248963178445643460e-03,-6.211754359090359764e-03,-9.804424339955401635e+00
-5.734794770518293573e-04,1.213555644695126293e-02,-9.796966195864371230e+00
8.725597683479196500e-04,2.960875215303407013e-03,-9.806427494391897426e+00
-5.017146009292206867e-03,-1.513382869097658822e-03,-9.798102323807325931e+00
-1.008834906047287143e-02,1.149399130719547333e-03,-9.802258946615415525e+00
-1.125206081865574772e-03,9.166931243050726805e-03,-9.802140528240679274e+00
6.463854644566533608e-03,1.781479907050162936e-03,-9.801924410048487246e+00
2.596325478868427572e-03,-3.166535613103044731e-03,-9.802454838085933986e+00
5.141269941643768562e-03,-4.170186714476999471e-03,-9.802484761276364367e+00
7.798538567733316780e-03,6.482427453881398419e-03,-9.798545307986033848e+00
-1.417262220550942605e-03,-1.315599776228207774e-03,-9.803913073781718168e+00
-7.526523156240810461e-03,3.627765003472593550e-03,-9.800226911404132935e+00
1.490055281538753143e-03,4.524255687388597028e-03,-9.805111210969240432e+00
-8.794896430582460926e-05,4.897546831175455737e-03,-9.798088934397332750e+00
-5.926429904453692048e-03,-1.223177850664221343e-03,-9.798977771642759294e+00
1.632300075839254305e-03,9.049503419159988377e-04,-9.806324958789430113e+00
2.364714940979662210e-03,-5.059579442944823861e-03,-9.796550366706982871e+00
-1.888913015119924747e-06,9.819687074218248421e-03,-9.810602671893564164e+00
-9.538093397867265213e-05,1.415535877725605275e-02,-9.799637190369590911e+00
1.701031854937328164e-03,-1.092423047312116556e-02,-9.793469333136810562e+00
8.814595564846178992e-05,1.075166842978012190e-02,-9.809244090190206933e+00
-1.691905119578967446e-03,-1.625636322511944199e-03,-9.806993384858980534e+00
2.288923311382102827e-03,8.490903518091503024e-03,-9.796610173994142912e+00
-2.810328758155731296e-03,4.043417097050809551e-04,-9.806534950884007173e+00
9.941148649040315761e-04,-1.573661397915069671e-03,-9.801912036591579280e+00
9.898263072300904006e-03,3.119394957097393253e-03,-9.802724593433660871e+00
-1.125239718723701531e-03,7.998522052267021537e-03,-9.807213057455582472e+00
3.638499872386612068e-03,3.120221871971092398e-03,-9.801349873701930449e+00
3.593330911553325492e-03,-1.837417278919105954e-03,-9.809052802523643422e+00
8.046337112108675619e-04,-3.211067687671986370e-03,-9.808211719614087443e+00
8.161148572191154063e-04,4.380589534461174807e-03,-9.797439210503389617e+00
-1.136221229075182193e-03,-5.922234202601055902e-03,-9.803642749718060045e+00
-3.747489970408028354e-03,-4.276216819049554960e-03,-9.792800000662072790e+00
4.029733407143840096e-03,-5.537886892041253041e-03,-9.799807582286829799e+00
-4.512846215607594323e-03,1.104770898846540138e-02,-9.809891996883242982e+00
-1.173363591895221041e-02,5.077340329580336611e-03,-9.799886954807575989e+00
-3.690624674377738969e-04,-4.915109073220048051e-03,-9.806669555687719253e+00
-1.093147136526307446e-03,2.486781811729238487e-03,-9.798089875168685126e+00
6.197905628865471930e-03,8.769055291030114496e-03,-9.804131519130402594e+00
6.979210136122079335e-04,-5.505282047309614790e-03,-9.799615255519018575e+00
4.202308363782326396e-03,-3.786625303532668678e-03,-9.797502535206263019e+00
-1.221728864134992995e-03,7.505244948336886775e-03,-9.809886437602312270e+00
6.378372492640816370e-05,5.288443835385927411e-03,-9.804868838431429978e+00
2.007085743827734573e-04,-6.177792421751419037e-03,-9.801615152394662189e+00
-1.245876568179943343e-03,5.550378684101805495e-03,-9.799665435396969215e+00
-1.922258226604576722e-03,8.849052020141783687e-03,-9.810702550365197894e+00
-3.350203338872128657e-03,8.532189801399562082e-03,-9.788622323315951945e+00
-8.143827067713410583e-03,9.335576158669542726e-03,-9.800104975618634029e+00
-7.048600839994725170e-03,-4.700581758010313705e-04,-9.799394425114218876e+00
2.956085768528597321e-03,-2.806576728792446827e-03,-9.799725713975204755e+00
-3.535669467611725781e-03,-9.362197220696651112e-03,-9.804551954155229510e+00
-9.556222484854890245e-03,-1.070589233442143700e-03,-9.798064722007937988e+00
6.719444981165595583e-04,-4.963621256010980736e-04,-9.805202818116756092e+00
1.296729176873111407e-02,-1.591256347574653007e-02,-9.806213328550715147e+00
1.272065718673923715e-03,2.921917690309621535e-03,-9.796382900494414514e+00
9.936917351991359643e-03,3.330944427226391596e-03,-9.804805635994004120e+00
9.048472668533554582e-05,-3.948529356857924388e-03,-9.810687074189353041e+00
9.992294037419949607e-03,1.561823662646698307e-03,-9.814948464878023415e+00
-1.350801807721238200e-03,1.704412732061710064e-03,-9.802882599529270991e+00
-8.517758899855688501e-03,2.234126630733961495e-03,-9.807758202834300221e+00
-3.187431053827760943e-03,-3.429604872760450875e-03,-9.802212119145005786e+00
-1.005070453308095670e-02,7.088511986178097982e-03,-9.811542208039950808e+00
2.814793076991204974e-03,2.710388747221918228e-03,-9.800175692972210584e+00
4.076481376428483724e-03,-1.059532843075256707e-03,-9.810876546974848011e+00
8.215062821903618487e-03,-9.942170865468375959e-03,-9.809681983955114148e+00
6.074512669040563195e-03,3.958723652455785509e-03,-9.814962694011141409e+00
-6.914356813633740217e-03,-8.747935568601126392e-05,-9.797905450029668728e+00
1.751241136057045140e-03,-1.324243026639134770e-02,-9.804400937859735876e+00
-1.603035709399167280e-03,6.268826428499229934e-03,-9.808840995611767255e+00
1.288708644646496078e-03,-1.443305435148114005e-02,-9.805955388205722656e+00
3.221633147931828468e-03,1.257472416692371293e-03,-9.805151793428716900e+00
4.369054025384421815e-03,-3.794557262079772757e-04,-9.814347675297780071e+00
-4.283106116671321108e-03,-1.540345891412802769e-03,-9.798627645580188172e+00
1.232869673210100665e-03,-4.300171924316442164e-03,-9.802061967042108748e+00
2.397987037676524089e-03,-1.966248941411479455e-03,-9.800319678798045331e+00
1.234246354243690412e-03,-2.536574757120380486e-03,-9.790120648845160645e+00
-6.850707279716928590e-03,1.432825905349018611e-03,-9.804123829957855918e+00
-7.395461189231775090e-03,-1.025297703314959324e-03,-9.808766612054201417e+00
-3.962392106949056726e-03,-2.608409609928075829e-03,-9.801785274003425030e+00
2.688806805372800750e-03,-5.339651718118691194e-03,-9.807202489704327064e+00
-5.109697672012367478e-03,-4.568170566105861710e-03,-9.805775100128741428e+00
1.835675504442107163e-03,-2.570353849671504209e-03,-9.800544788788430495e+00
2.203095071400598508e-03,2.928887256835699220e-03,-9.798047092057933227e+00
-2.798978077630645111e-03,-6.084774776318425601e-03,-9.799857118293374469e+00
5.421123296351638672e-04,3.621657855620679257e-03,-9.799592846321173667e+00
-6.151396058415083481e-03,-3.786086128682768573e-03,-9.795596475557516669e+00
-2.124702893615053930e-03,-6.969401304640011202e-03,-9.805402043867619710e+00
-1.125303512930625732e-03,3.988581817061815499e-03,-9.801675410413464462e+00
-8.080724760466936885e-03,4.256274920246234245e-03,-9.803983954951142721e+00
1.429596504381716073e-03,-3.518548703947265745e-03,-9.796709966869348918e+00
-7.537080059221826049e-03,3.634206568044801369e-03,-9.803780584210619153e+00
-3.816733153360543553e-03,-6.090772286260163516e-03,-9.799360931087786497e+00
5.469884910510160701e-03,1.993181810705152868e-03,-9.799788567619657442e+00
3.153220183637462856e-03,-6.717687974928140786e-03,-9.801677263675966145e+00
3.388126788479218967e-03,-4.883466423403533090e-03,-9.801807727388688107e+00
4.709323925683890286e-03,5.880052656105213757e-04,-9.807260436346737720e+00
6.664615251792227295e-04,-9.863110826204899220e-03,-9.807490189833952599e+00
4.260627256929528338e-04,-9.095592062204236120e-03,-9.793766344116574984e+00
7.589487768633921931e-03,-5.033759442374386751e-03,-9.800324458604540823e+00
-4.961417047260202780e-03,-6.005699273747247720e-04,-9.799776666868265096e+00
-3.629237777416437216e-03,-2.293673038110503881e-03,-9.802170340752056177e+00
-3.006630156412402714e-03,-3.213558022927443837e-03,-9.801944718741717466e+00
-1.122177730274053278e-03,-2.035613145515869672e-03,-9.812610476444779906e+00
1.100706478399946647e-02,-1.207868433474996485e-02,-9.790230147235556402e+00
2.831349532052389491e-03,-2.980612060528538450e-03,-9.803436743735959524e+00
5.781767139277342420e-03,8.950260570357590289e-05,-9.805919406586312448e+00
-1.376507164434833004e-04,-2.651145489896264765e-03,-9.795593635140358302e+00
-7.906783465915601800e-03,2.456984994046903983e-03,-9.799108352562347690e+00
8.819939710316542295e-03,-4.733998807360406506e-03,-9.800835990878546511e+00
-4.289909416816951350e-03,1.422080436337174771e-03,-9.798102320473956794e+00
6.699918688166187899e-05,4.921155142105269366e-03,-9.800911228763036220e+00
2.173593658011773247e-03,1.716432513520966033e-04,-9.799942756282867151e+00
-1.036208864401527404e-04,-1.951606789912776942e-03,-9.806430401666723640e+00
-2.430741959158235627e-03,8.290468044378891893e-04,-9.789779426395439188e+00
-1.645002853250538376e-03,4.998607627513658620e-03,-9.805365635486817055e+00
-2.505241724326076613e-03,-3.682074843576889790e-03,-9.807306880773964508e+00
6.213251400441581300e-03,-9.924364564776837466e-04,-9.803343724785582580e+00
7.011175849319165911e-03,1.006650305180362658e-02,-9.802048089707930956e+00
3.934001376974769447e-03,-9.371828128066604917e-05,-9.799833016694437404e+00
-3.546264831535819728e-03,5.300105787904445080e-03,-9.807254693542370561e+00
1.823792322359800173e-03,-6.831742844166562197e-03,-9.804077003795615752e+00
-2.342681925286487724e-03,-2.002415655068835124e-03,-9.794843472173402787e+00
-2.348209576243247537e-03,-5.807653033163133992e-03,-9.806984217101369694e+00
1.504487044099562859e-03,-3.582106800074185554e-03,-9.802996457275719777e+00
2.430459440998547840e-03,3.136435980578292093e-03,-9.810461298523378559e+00
-5.581198078779810254e-04,-2.935939149310554629e-03,-9.803875236075622723e+00
-7.701771677953864539e-03,2.634210346434294990e-03,-9.809181204555370570e+00
1.535669809764711371e-03,2.155941782978309552e-03,-9.805948067737309870e+00
-3.308571808110375226e-03,-1.749480876329723069e-03,-9.801065240696368974e+00
-1.452629641907314832e-03,-5.574733734224260502e-03,-9.795510298622492229e+00
-3.284703179207448288e-03,-6.831731969280548902e-05,-9.793274918725671796e+00
-4.907831064675836387e-03,-4.332698413878319915e-03,-9.803388496250089901e+00
6.288769006940139912e-03,1.573250749676924050e-03,-9.807753902934827295e+00
4.877153957147818859e-03,-7.153848200453026118e-04,-9.801316589986157624e+00
-5.029785709339773710e-03,3.900063847952397588e-04,-9.802311921642090198e+00
-4.172189374151612229e-03,-3.769021968955171744e-03,-9.798422831125202848e+00
1.536270234477579016e-03,-5.378785331939125135e-03,-9.799378663328674577e+00
-3.347260110270469310e-03,2.532182352256132259e-03,-9.796938090188744397e+00
1.689297631964148307e-03,-3.168359417169693687e-03,-9.793186219143073856e+00
-3.034284369837489132e-03,-1.367423779412189075e-03,-9.799138191037991774e+00
-6.076021172590984065e-03,-1.246226900121608994e-03,-9.805139990082055945e+00
4.749487891755515070e-03,2.605991925086473997e-04,-9.800462705826545218e+00
-2.141466213426830752e-03,1.229057924988931003e-02,-9.804470273957536008e+00
-6.968729825445643157e-03,1.351775729446398795e-02,-9.804789805047876783e+00
5.389018204673859218e-03,-6.431220576184118291e-03,-9.801938634923972771e+00
2.755671812155015450e-03,6.619751833984595900e-03,-9.802129336787904990e+00
-3.490811509900645059e-03,-1.524215879513878599e-03,-9.803358149972096314e+00
1.081046281186381040e-03,-3.708433178850121907e-03,-9.799737543948504381e+00
2.814365008976723107e-03,5.521268945654643316e-03,-9.800790619305949747e+00
-4.883115029581947941e-04,-5.212895643581150554e-03,-9.804528749260201792e+00
-9.374279730856602353e-05,1.381961981238816238e-03,-9.796915689699517316e+00
1.056812862684487937e-03,-1.538982878715108643e-03,-9.802699543495700496e+00
-3.856153937813978135e-03,-7.920537937163696753e-04,-9.806363960090751064e+00
1.900726631134164613e-03,3.726601196181774777e-03,-9.803965063389563639e+00
8.561009826706530990e-03,-1.794152801140255944e-03,-9.818838534575018429e+00
4.676242588132784386e-03,-5.298885346178929846e-03,-9.807012918348750219e+00
1.669882630321231761e-03,1.140281319333495691e-02,-9.801042050658884008e+00
-6.302283471723022293e-03,4.912891815961157975e-03,-9.799667535791330764e+00
2.906379529999757790e-03,5.885992373642110788e-03,-9.803028233747575371e+00
2.243481085290745247e-03,8.974732216948718561e-03,-9.795302732607838792e+00
5.299354522820483998e-03,-1.225011552885431907e-03,-9.806555412353068490e+00
1.092917214155712151e-03,6.638397193443545344e-04,-9.802673458467360490e+00
-1.710866371774154770e-03,-2.473960094722755989e-03,-9.799319932039866288e+00
-2.055097156547235331e-03,9.882458903373298256e-03,-9.798557278575778184e+00
-1.826350108215817839e-03,6.080183836492901277e-03,-9.793449096876292614e+00
3.930148622392979664e-03,-1.613580871712397453e-03,-9.804670069218644812e+00
-3.057430344998133230e-03,-8.868502080454077757e-03,-9.796226114989108780e+00
1.019447072410663985e-03,-4.618936215717073246e-03,-9.802823464044527313e+00
-3.257461759903129261e-03,8.999613462566190270e-03,-9.805207854689411917e+00
8.520238321624348105e-03,1.865754291546849663e-03,-9.799044695951526052e+00
-2.048698852926720410e-03,6.755707897568968487e-03,-9.801297972585196305e+00
-6.974534454530266839e-03,3.954978866809071188e-03,-9.791760613506623301e+00
-3.707057198071433534e-03,-3.274202549610750069e-03,-9.789586522022725390e+00
-4.284227920079598274e-03,1.835388782408219240e-03,-9.802391265112760266e+00
-4.593678286176733697e-03,-6.832779259694774128e-03,-9.802178063261997920e+00
8.831974288056539807e-03,6.393121558547721836e-03,-9.802000637663367044e+00
1.108588911226117109e-03,6.864974966743263816e-03,-9.804405817992670080e+00
4.739058324847065032e-03,-6.700412907095187583e-04,-9.811609853903883405e+00
-1.604811825163450847e-03,-5.767304580214904341e-04,-9.802561523985755088e+00
2.586359973382188968e-03,2.966701273421939143e-03,-9.800850903822086124e+00
-4.198643264853315661e-03,-1.892547364604445876e-03,-9.800770997973316412e+00
-2.760400933847293424e-03,2.270320635505769253e-03,-9.802070473958982788e+00
5.957811754163153291e-03,-1.612177729810465110e-03,-9.805501379642398874e+00
7.924093937245788033e-03,6.116691002657023040e-05,-9.808011848961626811e+00
-3.775206812840541104e-03,-6.969821439758388084e-04,-9.804155115307132462e+00
3.553641864865230392e-03,-2.008233907820511800e-03,-9.812090838728499520e+00
2.002293323735564439e-03,-4.214886691267080189e-03,-9.807145557664538771e+00
1.347258890364738367e-03,-7.601054717067165512e-03,-9.799132552806025132e+00
8.305751394185650806e-04,6.452904660158015684e-03,-9.798408154576691231e+00
2.819823011317182816e-03,-7.566457921008775712e-03,-9.797912618089331005e+00
8.026430793554684834e-03,7.558823572131580931e-03,-9.817046949994086447e+00
-6.883093102689571974e-03,3.590331190587745338e-04,-9.799858695137610098e+00
-2.744484557033156306e-04,1.774491015285421152e-03,-9.804083632899152079e+00
9.661068510241593420e-04,3.661395267275950518e-03,-9.804187640587082697e+00
2.410941927634114267e-03,-2.901820811674067635e-03,-9.806524372400005518e+00
-2.702391643106465818e-03,-1.027290616500341550e-02,-9.807019513329242599e+00
-2.137112714682314670e-03,-5.239984415852931565e-03,-9.794806337368669347e+00
5.508615070179204154e-03,-2.105444145604829995e-03,-9.797863493187167094e+00
-1.193220614149579327e-03,6.071246616499469291e-03,-9.806498054986214186e+00
5.465621444503726729e-04,-6.126272937537560487e-04,-9.807327062212431557e+00
-1.062989360454904934e-03,-8.529922089354864331e-03,-9.802927404694123936e+00
7.491107422932871338e-03,5.330695149631176251e-03,-9.797277901009923795e+00
4.101310923417132194e-03,4.006955890122382465e-03,-9.796427838884262940e+00
2.462341910613983793e-03,1.155376396738529024e-03,-9.800494733427514760e+00
7.877887864454653777e-03,9.386857164573993509e-03,-9.796978951681193593e+00
-6.098572148012414628e-04,3.350802482767172540e-03,-9.798639557419141610e+00
-4.440326199407997575e-03,-8.604589693459934602e-03,-9.806008310894895885e+00
9.749629374214641153e-03,-1.450824661243773359e-03,-9.803989083334849752e+00
-1.065338222438795340e-03,7.674411760202132053e-03,-9.805673775274865278e+00
5.012601543210742222e-03,-4.583382610998886462e-03,-9.808376946997404033e+00
5.125351694405859415e-03,-2.496038403610253628e-03,-9.809681554481667121e+00
1.609397098276000443e-04,-5.558628715124834703e-03,-9.795325776637445969e+00
-1.051833443528473345e-03,-2.471504883154623453e-03,-9.803271809308926166e+00
7.131742506459447239e-03,2.902794788486199717e-03,-9.805977889864738728e+00
1.331752741319463347e-03,2.996625617694810822e-03,-9.805784017764356264e+00
-5.870144529859574068e-04,2.765374245798167649e-04,-9.799461522360017440e+00
-1.935228835842213359e-03,7.648844247837573510e-03,-9.804924395826422057e+00
8.570084148390281348e-03,6.788108454848255577e-03,-9.801470636540626558e+00
3.102902557751277611e-04,2.595011514001449408e-03,-9.799381041457680297e+00
-9.770277387357274249e-04,5.577772367057367078e-03,-9.796747356034851251e+00
-4.534027033103960914e-03,2.995780905828716260e-03,-9.803629814293110201e+00
3.983579031633899606e-03,3.179854794115696999e-03,-9.809575332424353533e+00
2.759488797053535631e-03,3.761539231237618405e-03,-9.795146582060066720e+00
4.837204328912960566e-03,3.003911169292508457e-04,-9.797976689886416679e+00
2.544225316471162429e-03,-4.728194483964981415e-05,-9.814430440327219785e+00
6.691003401573467242e-03,4.972961276144750864e-03,-9.801791820908993813e+00
1.808205034353653614e-03,-1.941156075264722277e-03,-9.791860558561687355e+00
4.784996423157326581e-03,-4.470009993006508232e-03,-9.805797321912601561e+00
-3.936828366842139854e-03,-2.960255691452560629e-05,-9.812500225715409030e+00
-1.219494241935238296e-02,2.028097281170141396e-03,-9.801971930354030249e+00
-9.081262358554280552e-04,-1.070443132932129109e-02,-9.798616445624743321e+00
-8.918559985693574887e-03,2.616470650599934684e-04,-9.808151765996655058e+00
4.983253024995124014e-03,-3.285775183459518304e-03,-9.814934436831530107e+00
-1.217581197121850485e-02,6.303057060869541109e-03,-9.807505508764506885e+00
-1.478797220750462625e-03,-2.140069857482320749e-04,-9.803804614349395763e+00
-3.060902557601241983e-03,6.920590380793868561e-03,-9.807896119809493385e+00
-7.705692376472665639e-03,-1.084611706359417220e-02,-9.790605756850963459e+00
5.295658656348121648e-03,-6.819843433981074080e-03,-9.797375052559184283e+00
-1.176610165984779376e-02,2.226492058423023418e-03,-9.795707814584805107e+00
-2.096982121207859127e-03,-5.351615050349056192e-03,-9.798623088360725930e+00
-1.000145993431592224e-03,5.286643807079522729e-03,-9.801464604762092137e+00
2.287054018571674696e-04,-2.000852409565582199e-04,-9.798670629318904091e+00
-2.806150598117341556e-03,-4.830921864691809647e-03,-9.801128402363746162e+00
-5.798263590663495226e-03,9.066060317286090547e-03,-9.801433560413887136e+00
5.894460648609084648e-03,-4.145433007546406659e-03,-9.798045980482344319e+00
-6.431480457487162572e-03,-5.226608000682819895e-03,-9.804492734732882298e+00
-2.903098841217181640e-03,7.099232268795999806e-03,-9.802900620437451806e+00
2.134356821711896456e-03,2.148085241868805031e-03,-9.811243697382163731e+00
3.014209517104128079e-03,-9.492450570505399365e-03,-9.806469684405204390e+00
-5.049835703883336080e-03,-2.127410096316829664e-03,-9.798789563899138244e+00
4.964138886370406643e-03,4.064271048058517612e-03,-9.805873589478474983e+00
1.575479479424855898e-04,-2.910191859114430544e-03,-9.795042676055119912e+00
5.629328105122621828e-03,-7.772449135664428327e-03,-9.800869287953696940e+00
-4.446558866278353499e-03,-2.695491435490984800e-03,-9.804876999547554206e+00
-6.176945202470525247e-03,8.009870454534668031e-04,-9.792038970209327786e+00
-6.584861610070556802e-04,-7.403424895936963753e-04,-9.796729878198492614e+00
-2.098010628875875399e-03,6.141604114048754975e-03,-9.805348577732887705e+00
-7.743012957274061740e-03,-5.608446931711247871e-04,-9.804989557520201515e+00
3.202892678299739445e-03,-2.721213844876127497e-03,-9.796876966867490211e+00
1.819466710677045205e-04,-1.436577523898789014e-03,-9.804217611045769942e+00
3.713183966453551411e-03,-8.466196349000486981e-03,-9.798539200239339664e+00
-2.759002473901143136e-03,-1.477981251053029450e-03,-9.797517347072254523e+00
-9.214655791169272872e-03,8.731630549851328305e-03,-9.812364575667997357e+00
2.726481107845391254e-03,4.930418941347537026e-03,-9.804148559558282017e+00
-3.024887198041565761e-03,-9.797927176529814750e-03,-9.796043834226425773e+00
-2.058086970588215471e-03,2.547221274320885138e-03,-9.803079374024450843e+00
-9.298304919172686173e-03,-1.121932037353925646e-02,-9.801881515969546044e+00
-2.168712248167182707e-03,-2.429671213477215235e-04,-9.792967368245836468e+00
5.160380633827373401e-03,1.248425399205529626e-02,-9.793991167777832629e+00
1.107497764657709542e-02,-6.067662144076345181e-03,-9.800412290016518924e+00
9.460350521478522439e-04,1.990977898288098531e-03,-9.797479047865810031e+00
6.639616667735794052e-04,-8.236937303151425568e-03,-9.805543904600970251e+00
4.503409572157199108e-03,-1.613497987355885181e-03,-9.815053259874623848e+00
-4.417684631718894923e-03,-1.625527774884776705e-02,-9.797647281388496054e+00
-4.255705516969310494e-03,-3.020945172464067473e-03,-9.806825203987701300e+00
-1.116579352369511530e-03,-4.997316138773900593e-05,-9.804774114152335684e+00
7.322355966504978057e-04,-4.683894485491296548e-03,-9.804605556590082927e+00
-3.338536119371463690e-03,8.035950737166638533e-03,-9.808197971372731416e+00
8.526427382811895732e-04,5.624878024456546853e-03,-9.805873808400571434e+00
-7.561199270683626990e-04,4.725852073430893314e-03,-9.808939841656345138e+00
1.703219849955933066e-03,4.735412431599757819e-04,-9.806985317749846942e+00
-1.653481984463320634e-02,-2.138241272217392217e-03,-9.801046447691874164e+00
1.496278913251728598e-02,2.253801462221696403e-03,-9.803145613958497151e+00
8.053011979446328406e-03,2.734315001993388276e-03,-9.805082658829789466e+00
8.087744150069421309e-03,-3.465369697408449828e-03,-9.803729392765795581e+00
6.955348196626412287e-03,6.389383957175374766e-03,-9.797430114920441468e+00
4.769358569917775750e-03,-4.404503537206816075e-03,-9.799652083479889697e+00
1.459266333331407477e-03,3.446030370981053702e-03,-9.802886568213297735e+00
7.063476556038496453e-03,7.286696476639088066e-03,-9.801561919991588212e+00
-9.230706414015310730e-04,-4.365171655309448354e-03,-9.801955744267653259e+00
-4.411842248843919449e-03,1.911651766950421896e-03,-9.808147015184170314e+00
3.834538882160623812e-03,-3.871060636280819218e-03,-9.799396117663718542e+00
3.638820218988785080e-03,4.681909727925316102e-03,-9.800917237534036985e+00
-1.051403015274294563e-02,2.882429272231190869e-03,-9.805222693540800449e+00
-2.924683696865178380e-03,2.090620275928245595e-03,-9.812267451842032528e+00
8.777276279924618729e-04,1.516876680862741088e-03,-9.802890408948808698e+00
6.774441463848572369e-03,6.805387846176388054e-03,-9.803370963032033814e+00
2.373706210901368151e-03,8.623210201939093128e-03,-9.812666660729421508e+00
-6.110521134997878596e-04,-2.757908469731775065e-03,-9.794982351673326093e+00
1.270395568237484528e-02,4.025453536919942552e-03,-9.798395771888255723e+00
-1.138249407606812223e-02,1.086877956041725152e-03,-9.801584712373871966e+00
3.701586789084635506e-03,6.230050148772734581e-03,-9.795892360717251890e+00
4.979027781121594942e-03,8.685313079715295407e-04,-9.803433065349832276e+00
6.144281958626934478e-04,1.546847296603886483e-03,-9.805752910916016418e+00
-6.691068941051714521e-04,2.986413199011246546e-03,-9.801416098451195325e+00
-3.333795638073120023e-03,3.366718492975327541e-03,-9.801311657037748759e+00
1.095564310341624620e-03,5.096727810848799027e-04,-9.796329259338746098e+00
-5.032280730913800924e-03,-7.738810990226862360e-04,-9.799385369704825877e+00
-4.332552791800721274e-03,-6.866719361820603938e-04,-9.806034544820043664e+00
5.090511176370880395e-03,5.209298793018798425e-03,-9.806550933577169005e+00
-1.481065835402756029e-03,-7.153991537072331222e-03,-9.801678395896828988e+00
1.282626580051394701e-04,8.962954674088970813e-03,-9.810980597087578303e+00
1.358572121649049939e-03,5.518846626627652539e-03,-9.796288373150702000e+00
-1.501419187940636942e-03,1.498794603164199917e-03,-9.806454265526948433e+00
1.005621893393596894e-03,-1.025872046299176671e-03,-9.798795007090001619e+00
7.805162919974726644e-03,-8.610887341836858527e-03,-9.803529658855481443e+00
6.619647579205245385e-04,3.536398006198215177e-03,-9.798374262821855751e+00
3.126207767663122944e-03,-5.198732399087791639e-04,-9.805074428718601354e+00
4.403457085988732138e-03,-4.852879638019246857e-03,-9.800704234603095699e+00
7.625652536994531432e-03,-1.049237204393876129e-03,-9.805423621687070934e+00
-6.858515547605971777e-03,4.833947708946099639e-03,-9.797021844128542156e+00
3.364115354150456344e-03,-1.162918729465212608e-03,-9.797682113102450074e+00
-1.117363937442486391e-03,4.020841518291535382e-03,-9.807539502956540645e+00
-5.034805171730979099e-03,3.813970110362567903e-03,-9.799488090346880398e+00
1.374926003511688609e-03,1.110123525220993619e-03,-9.811317188774834719e+00
4.182640911276532154e-03,-5.764148965744290282e-03,-9.808205588508629447e+00
-8.934681888487012351e-04,9.160460495116073618e-03,-9.803078494199704451e+00
-7.533630767651296190e-03,-4.341591286367538736e-03,-9.800842318220936988e+00
-6.114783374325042688e-03,-4.879064672652380641e-03,-9.803142736379946598e+00
3.479969580090161527e-03,-8.036515570682084206e-03,-9.800068106666413925e+00
3.726277170334684353e-03,-7.053628649563074924e-04,-9.808768011432293932e+00
-6.052200980183078567e-03,-9.129632527009715103e-04,-9.795949916337756136e+00
5.092171097737637799e-03,2.784224419366353783e-03,-9.811122785235079746e+00
-2.397712255448391366e-03,-6.984136764036542530e-03,-9.793339535485262815e+00
-1.306159385101981867e-03,5.712808106775889121e-03,-9.806258681157027368e+00
-1.090085415451405929e-02,2.526537760090478979e-03,-9.800617773828705026e+00
2.116028152059295543e-03,-5.224117381585540419e-03,-9.797396501937942759e+00
-2.822133136629110042e-03,1.510533256770255116e-03,-9.806372979503619192e+00
-3.419253661741169376e-03,-2.154360911390858311e-03,-9.804948418324928028e+00
-6.957268329553709801e-03,1.244388083727485106e-02,-9.791470271418740268e+00
5.793014031894227686e-03,7.227305025230591762e-04,-9.810452018078848369e+00
1.142223427724198227e-03,7.855979515216217693e-03,-9.798776773557300146e+00
-7.109694393128993505e-03,3.846922082936991491e-03,-9.794234854263903500e+00
7.037848175717277728e-03,-1.078616648450987300e-02,-9.801996534502558589e+00
3.090828932795047692e-03,4.705780304398193186e-04,-9.801850706210391451e+00
-6.590800184811057907e-03,-1.645521605508557189e-03,-9.801471308309007924e+00
-1.016624230852309144e-02,5.655064407387157439e-03,-9.793940492047049418e+00
1.396945167074120403e-04,-7.092693143116365071e-04,-9.803656262505539232e+00
-3.923476397174227928e-03,4.689833093635900271e-03,-9.797269003225975936e+00
-7.580618708619735711e-03,1.626595855429639878e-03,-9.797464063235080900e+00
-1.649674539232601992e-03,-6.833211330088182107e-03,-9.794214159029412059e+00
-6.292933802441748586e-04,2.569959162516900243e-03,-9.800457798856980318e+00
2.768585610781665318e-03,4.516795503167520985e-04,-9.799224834279190333e+00
6.580626042187966672e-03,2.464609688844193475e-03,-9.811142764699187779e+00
-3.674733500416059407e-04,6.017705004955404072e-03,-9.792150511939684776e+00
-7.816441827631748869e-04,2.806818964814422135e-04,-9.803375105629100972e+00
8.988848029234227039e-04,-1.289512699357344382e-02,-9.806911677325633292e+00
9.565040366619736653e-03,2.019805685473395011e-03,-9.796327365815102439e+00
-4.305103919274677442e-03,-3.246662357803979573e-03,-9.802287750412663314e+00
-2.342980058244366077e-03,-1.759456665730868606e-03,-9.800986584544979507e+00
-3.143163384050374869e-03,8.033755494865946244e-04,-9.804743026453005328e+00
-4.949558122999262420e-03,-4.526969953785394893e-03,-9.799645891338771619e+00
1.260922830650133353e-03,6.988370961223048031e-03,-9.802575307269389526e+00
-1.481449013401546066e-03,-7.149440386538104437e-03,-9.800563624492481196e+00
-3.775148488376990196e-03,2.395359110387004775e-03,-9.810728260077272722e+00
-9.355481492252422111e-04,-9.632995435393969241e-03,-9.805743177053109605e+00
3.836299935834328479e-03,-1.935930863134377325e-03,-9.798780849633979884e+00
-2.775951794696252840e-03,-5.934935608080286551e-04,-9.805946572538053019e+00
-9.772989479266108725e-03,-1.455821036159341518e-03,-9.806248624246901358e+00
-2.131261753055104999e-03,-1.287106116984138363e-02,-9.805251782093341362e+00
3.398344268790540364e-03,-6.791864818781086222e-03,-9.799326523448700144e+00
1.962610451966866759e-03,2.136510310810907712e-03,-9.810484884648706938e+00
-1.570923330912692758e-03,-1.214663454638592599e-02,-9.799100769073708861e+00
7.276527089354640522e-03,-6.002702602097125147e-03,-9.787570851888609980e+00
1.581120346778186773e-03,2.392549215151736162e-03,-9.797432965054747811e+00
-1.593682659806655924e-02,-9.405303350303925031e-03,-9.801902868241171518e+00
-1.947985064575014937e-04,-2.466525833938468422e-03,-9.802891190296005419e+00
2.184073520843176231e-03,-5.680503261262324216e-04,-9.800297660779708764e+00
8.742168541015661988e-04,-6.901019143776540576e-03,-9.802827934876640725e+00
2.188437146929194180e-03,2.799491071684570478e-03,-9.798674640910196132e+00
-2.922989923079261435e-03,5.789225923906125490e-03,-9.798970748572219946e+00
7.817756806874761807e-03,7.379088309833096472e-03,-9.794394839357801530e+00
4.011748693947368195e-03,4.253289527186759032e-03,-9.799944383170517526e+00
-3.151601079601217703e-05,9.157202687373104753e-05,-9.810866941574765576e+00
1.548979976907037277e-03,1.635522028280073743e-03,-9.799481254010952824e+00
-9.752976177594482204e-05,1.043451147727227080e-03,-9.805026538624460386e+00
3.849758932787362108e-03,-2.789669109689859672e-04,-9.797223928016961736e+00
-4.529874522515998925e-03,-2.114957948871739202e-03,-9.798183514759289281e+00
5.938596980741070799e-03,-1.019026526263484486e-02,-9.805243485846160567e+00
-1.807605475371142729e-03,-4.479467795791881608e-04,-9.808506278846776283e+00
-1.112725294224803764e-03,-8.539886726745486711e-03,-9.798150669367545973e+00
-1.181709152904429801e-02,6.507587033482464638e-03,-9.799842974767880577e+00
1.470279781364248811e-03,-4.262040268187300418e-03,-9.799647704033121798e+00
2.539504576913171469e-03,-6.162724278044826379e-03,-9.798852693170681860e+00
1.484451145487767493e-02,-3.865789472049235755e-03,-9.806661534249430545e+00
-3.165337014240997109e-03,-1.050813552387511174e-02,-9.805928789561601633e+00
-4.303777977800584483e-04,9.325832453118541865e-03,-9.802051911193700562e+00
3.173202231859512459e-03,-6.441849648066592937e-03,-9.805142993146233721e+00
-5.750953746338072345e-04,2.527578918655367431e-03,-9.798089311015154124e+00
-3.193076063731025219e-03,-3.953148149950323938e-03,-9.803668946044000521e+00
-6.388467858111819553e-04,-3.929533866457848856e-03,-9.797121991697013144e+00
5.018571854133502957e-03,-4.892462935838097320e-03,-9.807239044627754865e+00
9.170306008114283147e-03,1.488954942753135122e-03,-9.795814495667954702e+00
-9.741764367789635531e-03,-5.681433651568404755e-03,-9.809757197868277601e+00
2.706335896852085469e-03,1.134041839476764490e-03,-9.799353456752987412e+00
-5.800990352424061948e-03,2.463431079283465944e-03,-9.810627771601160063e+00
-5.533252317065444001e-03,1.079117382969171880e-03,-9.803069787651907063e+00
5.771816970985096072e-03,-4.612509651463184059e-04,-9.802181226916902190e+00
5.317622068348804194e-03,-6.723145959746834772e-03,-9.800050095653473292e+00
8.281317881530475197e-03,-2.889649915547979220e-03,-9.805868461173684381e+00
5.490337062312348505e-03,1.645871979306521215e-03,-9.799168441288845344e+00
-1.441645170682341170e-03,-1.563645064900807957e-02,-9.795361053172495502e+00
-3.612525564825357170e-03,-4.909557346440517923e-03,-9.803281219721421635e+00
-1.246539140403400995e-03,3.139139167628143129e-03,-9.801065130465477893e+00
-6.066026141557922038e-03,5.960342929495743812e-03,-9.809117487239323196e+00
-2.567336760943981361e-03,-5.803155995422869945e-03,-9.807043450332967538e+00
2.725825715820275313e-03,3.614823495993111247e-03,-9.807411479676575894e+00
-1.029811879230275139e-02,-5.770618733550604952e-04,-9.803076032522698213e+00
-6.203526076679100358e-04,-3.264457626154175507e-03,-9.795138831413067848e+00
-4.318503598891007544e-03,3.335372407532678145e-04,-9.796372470431320423e+00
8.362131192212878287e-04,-3.570849298473843369e-03,-9.800862353829673523e+00
3.087574029834313886e-03,1.007397885318649447e-02,-9.807298568655996363e+00
-7.443230676308027274e-03,-3.240987502587307136e-03,-9.807977933868190945e+00
-4.811547850671240266e-03,1.984266379439057098e-04,-9.801461495364646836e+00
-2.819063531112787121e-03,7.237478670771214928e-03,-9.796418235983619383e+00
5.662038868864700987e-03,-6.034710251496404852e-03,-9.807959780729991195e+00
-6.793551865609375948e-03,-4.471493766856194860e-03,-9.802971462620106990e+00
-5.473844097340823181e-03,2.801039044658249714e-03,-9.804665191372404109e+00
-2.682525796380290546e-03,-7.703999270783123791e-03,-9.795633747911031364e+00
3.563687719507626500e-03,-6.662012454174572225e-03,-9.812850883038036542e+00
-1.437436098678688970e-03,-6.431672233172655052e-03,-9.804161763933549878e+00
1.274944731688309844e-02,-2.932028857436404148e-03,-9.800976404121289676e+00
-4.336249997776091269e-03,2.079998074383372728e-03,-9.798597741403021644e+00
3.640270621784787858e-03,1.082730393410510569e-02,-9.800495878596001020e+00
3.832266526936152669e-03,4.020506748893013654e-03,-9.806014679763045194e+00
1.029142976052369388e-03,4.586690690215650297e-03,-9.807166844641491465e+00
-9.620521630085105552e-03,-3.180181426915019201e-03,-9.802463296494451583e+00
1.284662047767620588e-03,-5.565290397453801478e-05,-9.803263945458883910e+00
-6.232632257447866080e-03,1.891458653262128101e-02,-9.804495884290940211e+00
3.256518873674115605e-03,-8.033378339061016116e-03,-9.794080098477980556e+00
2.670059986337976372e-03,8.252807017471346443e-03,-9.802815353392492881e+00
-4.300835922069986585e-03,8.105564836376906099e-03,-9.802008940654200586e+00
-9.127369221251022471e-03,4.755963313799449303e-03,-9.801385652032770679e+00
2.172350513739877437e-03,3.811779640524163171e-03,-9.805773212919318027e+00
1.917683814257804082e-03,-1.465718984806961035e-02,-9.805217247646208278e+00
9.068909011014036035e-04,-7.451741707152055236e-03,-9.791728870377998106e+00
-3.610933819571951302e-03,-4.259190712834435080e-03,-9.806742144309549047e+00
4.017775988972233439e-03,-3.064914083883351400e-03,-9.797318919069248011e+00
-2.376787093443192146e-04,2.267905580719698909e-04,-9.805781948954983562e+00
-5.076837897931644680e-03,-5.426299309238483658e-03,-9.803740239288474712e+00
-5.447994216153236209e-03,4.757564104801158787e-03,-9.801164091899854824e+00
7.847600621439869764e-03,1.115159434899208254e-02,-9.801731065063817638e+00
-1.458652338640160570e-03,-2.730043616835142132e-03,-9.810522982825157001e+00
2.652401192364994137e-03,-4.807058758467671819e-03,-9.803140811199956062e+00
4.822419604782907663e-04,-2.761461255216513064e-03,-9.803852134686833253e+00
2.615340176147843126e-03,-4.646288874236252989e-03,-9.801309100142805875e+00
6.735252731731517992e-03,3.365865175127423850e-03,-9.795788154119156488e+00
-2.639798350217852606e-03,2.954549417187319303e-03,-9.803007702193928807e+00
2.531594695825852524e-03,5.017405130704940749e-03,-9.803479131378438183e+00
-9.212596717973621507e-03,8.606313591289044621e-03,-9.795548252514629795e+00
-5.196492516923577332e-03,3.306667991466366151e-03,-9.804625315566141808e+00
-5.337223848243134033e-04,4.033331807068424703e-04,-9.798775929594194523e+00
8.724570257718413518e-03,-3.199781782100436130e-03,-9.803896373053945013e+00
2.721719543089258075e-03,-5.139391268354438595e-03,-9.804948433213425574e+00
7.595281531563523834e-03,-5.083990451676032550e-03,-9.800332901008360409e+00
2.888876628778802753e-03,-1.553119587264822389e-02,-9.805411938137922334e+00
-4.197698500855027081e-04,-1.664455992613693772e-02,-9.802836678900346712e+00
3.377594668587749222e-03,-4.887260013374103949e-03,-9.812258526687097415e+00
-1.603321888285476153e-04,3.781416589704993288e-03,-9.810885417383062190e+00
3.881591492918894278e-03,1.101018459427055042e-02,-9.808157403380617367e+00
4.238128474596130485e-03,-5.066025253433801764e-03,-9.805789106147051015e+00
2.605920296473965888e-03,3.921060283089361498e-03,-9.801663186911477865e+00
5.692175473946641320e-03,2.809328466195479615e-03,-9.802341132922622435e+00
5.634526544416851822e-03,1.215468452914756671e-02,-9.800283565291072918e+00
-5.353810784485479694e-03,-1.164682419308723550e-02,-9.800509204370602134e+00
-7.120401548205482038e-03,-2.836184338645560219e-03,-9.806146556241408518e+00
-6.672598270860256604e-04,-5.802136969027191227e-04,-9.806322020500530812e+00
2.592703448306840890e-03,-5.336446135726675456e-03,-9.800065332847600175e+00
-4.327686924192345667e-04,-2.323942407484658656e-04,-9.796047024303108586e+00
1.814436318608202484e-04,-9.717039860246285896e-03,-9.800585802407905334e+00
2.225490063342784250e-03,-3.592545243646891231e-03,-9.804183425250981188e+00
6.094258196157172069e-03,6.074262521235215123e-03,-9.801671668316085828e+00
6.780397855232414908e-03,7.441392556220160007e-03,-9.805556481082293274e+00
6.302377750680373831e-04,-9.928413084393963688e-04,-9.804834804420053729e+00
-3.230774211728085210e-03,-2.852466430498495041e-03,-9.800080149785490136e+00
-1.091934283540228106e-03,2.878171804352536948e-03,-9.808894722673692002e+00
3.697542833572989556e-03,2.165375787893295077e-03,-9.796994625484085617e+00
8.479623076092640804e-04,5.972944537263316298e-03,-9.800162286369495490e+00
9.373504666377424979e-03,-3.905949139474258237e-03,-9.803331950400741235e+00
2.693691465637971984e-03,-4.582901528524708709e-03,-9.800982874645505660e+00
-4.906734371152372126e-03,-1.051034044395891863e-03,-9.800146089116392289e+00
-5.000182220176067199e-03,5.929533605215546802e-03,-9.805745361296809293e+00
-9.960037773349063751e-04,3.125807022660914355e-03,-9.800443494751421625e+00
-2.832257698636249463e-03,-5.190367946577102709e-03,-9.811684001393826904e+00
7.270752521095562651e-03,-6.421344114684357333e-03,-9.808039802791364892e+00
2.561472439571675034e-03,1.966811128576143822e-03,-9.803012585087810038e+00
1.140444922525434175e-02,-9.143341130212557025e-04,-9.801077222091288732e+00
-3.424975566732450273e-03,3.548073991062668242e-03,-9.801396633540392145e+00
4.197733352883883939e-03,8.204240865417003481e-03,-9.795114044674294362e+00
-7.430921344108823955e-03,7.522007135491594332e-03,-9.806137062881250088e+00
-4.754525885273575697e-03,-3.482012592851879175e-03,-9.804360708421995696e+00
-9.794807975904071522e-04,6.104657395602461909e-05,-9.805592557172909451e+00
-3.088077038404940956e-03,-3.205783877212368092e-04,-9.800511441143308744e+00
-7.515889243333978391e-03,5.527841411275559967e-03,-9.809680367481087515e+00
-2.784776320237991164e-03,-5.918626934247508097e-03,-9.803204316139270347e+00
-1.120722320105082246e-04,2.750387165885890932e-03,-9.815791062418107060e+00
3.012679305245513205e-03,3.058776122208225340e-03,-9.796283446024611763e+00
1.459770206871818929e-03,5.534881172295337895e-03,-9.801984626298805736e+00
-4.834605644894888858e-03,-1.699868271354927022e-03,-9.804823129491776257e+00
-5.312185160768628962e-03,-1.870372856920375941e-03,-9.801921508577045472e+00
4.997868104554098814e-03,-5.528690960309757011e-04,-9.796910297372805942e+00
2.701881572840349102e-03,6.075316073022725763e-03,-9.798069902599316094e+00
1.034034330914626078e-03,-3.417073436738591978e-03,-9.796768921518138384e+00
-1.081225155409479667e-03,-8.547315633636120126e-05,-9.801603211012938743e+00
-3.600131875112578227e-03,-1.589564330875306011e-03,-9.799738186085237501e+00
4.043430179366829316e-03,4.475480207353689337e-03,-9.802030010928408643e+00
6.690009918834959090e-04,1.948518381210903334e-04,-9.801408183027293219e+00
7.655110544265411078e-03,6.450802946919393863e-03,-9.813036995017741404e+00
-2.635319880548444606e-03,4.087083248356716304e-03,-9.804333237568569004e+00
-4.478951194946813145e-03,-3.914250634795795117e-03,-9.803807914422268510e+00
-2.673731977845991183e-03,-7.229973198507327545e-03,-9.804849731073170815e+00
4.622329356090191729e-03,-2.115217630454103818e-03,-9.799934326325226763e+00
5.065938093641180612e-03,-3.106218675918980942e-03,-9.808905549532216384e+00
-8.539363909328223298e-03,4.647175619302850239e-03,-9.800079728644126575e+00
-8.304817518631795641e-04,3.721920599386843091e-05,-9.794035797297206969e+00
-1.464350843444512263e-03,-1.721958653917039436e-03,-9.801391381874877240e+00
-3.641127157475994671e-04,2.594383105348571465e-03,-9.797847705865736501e+00
-2.569581663572620498e-03,-7.671832224869680342e-04,-9.801379015621858315e+00
3.105916618317540196e-03,-4.358122955029319055e-04,-9.800693890476061654e+00
-3.419982407040445850e-03,4.379106534828549301e-03,-9.801569760546113841e+00
-6.198791932332689721e-03,-3.438875836332020656e-03,-9.805190478529302922e+00
-5.999526663058480334e-03,-6.496359529358323830e-03,-9.800606398169366074e+00
-3.955008765896942530e-03,-4.520844083300713974e-03,-9.804221700434430531e+00
-4.093624934426637330e-03,-5.804040861970931049e-05,-9.799425415603106870e+00
1.019487945791629040e-02,-6.324909541835686648e-03,-9.809122091366173635e+00
6.459374344097810073e-04,-2.059905834291395847e-03,-9.797601739676435884e+00
-1.423468374604443384e-03,-3.029244341048882658e-03,-9.798431699062774669e+00
-3.155412246876449639e-03,1.118782124340903135e-02,-9.796686580730780136e+00
-3.867500753728973176e-03,3.607694107690540778e-03,-9.806032249380562504e+00
-2.963980672630958484e-03,-2.489736360664468440e-04,-9.803128689478256774e+00
-1.008562701203164977e-02,-1.041786143654853045e-03,-9.801440974828343755e+00
-8.271130509854719010e-03,-4.459570474826150994e-03,-9.800555660335689367e+00
6.730173666432560931e-03,-2.219690506700042459e-03,-9.800120163180096711e+00
-3.397701017369893217e-03,-2.683234539760057449e-03,-9.800321441134370204e+00
4.077017003222088883e-03,-2.092284243290067156e-03,-9.799233532337950692e+00
-5.816840644284389933e-03,1.378913913878371473e-03,-9.801724083255903608e+00
3.976963938056209992e-03,-3.246533209765460875e-03,-9.809697350150045736e+00
-7.600623781579399219e-03,-1.187900386487226664e-02,-9.813507222605897695e+00
-1.305434234756079224e-03,4.567862390822058534e-03,-9.794842920868116920e+00
-1.438410447433641128e-03,4.290046279942919157e-03,-9.800771506921705623e+00
-1.548935982381675555e-03,6.336753263465668209e-03,-9.797819673478842972e+00
1.457859151706188561e-03,-6.205446422533774341e-03,-9.799738694382938320e+00
1.033458352511419263e-03,-1.603849436817570686e-03,-9.800413946806891374e+00
-3.728386140108052530e-03,-7.195805363091654396e-03,-9.797993641523570219e+00
1.691346201288273848e-03,-4.528944685988782297e-03,-9.801473225690903845e+00
1.203954212006343172e-03,1.072263442501657877e-03,-9.797666875993865432e+00
3.469709119710109087e-03,-8.987903018782454970e-03,-9.804711272694936142e+00
2.089718799462633204e-03,4.070433540999591517e-03,-9.805764852306237955e+00
5.555480161805410660e-04,-4.992135716618282051e-03,-9.806322176506757415e+00
-4.361345535240045840e-03,-1.547705081320594920e-03,-9.803345685904222506e+00
1.901592921986870223e-03,2.548905817536553826e-03,-9.804152697844440212e+00
-2.822288346991180634e-03,-1.724759003595986761e-04,-9.802676614340679606e+00
-2.818545556402579384e-03,-7.157021812891841903e-03,-9.801253753384719047e+00
-5.456163152268571001e-03,1.707494236484968699e-03,-9.802262837596755318e+00
5.239801181014427933e-03,-3.128836354400362212e-03,-9.809069601137624161e+00
8.449176291691649215e-03,-4.266939104388264500e-04,-9.800561848376240448e+00
-4.468085779547076308e-03,4.267588725032736216e-03,-9.795012659877100347e+00
3.156518514905606084e-03,2.232379180656151110e-03,-9.809664746078629705e+00
-1.528301243965507223e-03,-7.271095914627255866e-03,-9.804272317352392463e+00
-2.230265842570202349e-03,-6.684729630206053506e-03,-9.798300116779262936e+00
2.842435875758684248e-03,-5.083658313146928107e-03,-9.792602775900226320e+00
6.709262673847849606e-04,-5.657518253675995409e-03,-9.800670063802687793e+00
3.463438556085286866e-03,5.674820319067007748e-03,-9.800670568349001854e+00
-2.815331691988361921e-03,-5.328369585828163224e-03,-9.801029956907271412e+00
3.359813713245774630e-03,-9.079501428798170820e-03,-9.809912836272665970e+00
-2.377919803808638179e-03,7.609110082572198520e-04,-9.801780951637690364e+00
-4.857608594121534868e-04,2.321914974132114771e-04,-9.803872436493167086e+00
-5.469013755525584802e-03,5.898664627971231950e-03,-9.809944378895194106e+00
-1.432951818008873978e-03,4.470287998110654762e-03,-9.804515401651018536e+00
-5.224725419624218561e-03,-1.031174530859554385e-02,-9.796814112118010343e+00
-3.700106500670963770e-03,2.012519014726716585e-04,-9.798834387299569570e+00
-7.070939864985927546e-03,-3.577317860293552972e-03,-9.803022825809529550e+00
-1.864408420168385018e-03,1.429376611625056588e-03,-9.795414490519743111e+00
-6.150056505368505823e-03,1.271828955233469819e-03,-9.797257729717205876e+00
4.527872386330580867e-03,3.191547084400431396e-03,-9.797616106665650193e+00
-1.006407378580519542e-03,8.917106133323036586e-04,-9.802196448289780761e+00
-7.744136380913754737e-04,-1.013298528262935932e-03,-9.802111093795987884e+00
-4.277900349753368907e-03,-4.543594670991118328e-03,-9.796920445636091657e+00
2.851167495219285655e-03,-6.596007103603448822e-03,-9.801411826901363256e+00
1.070538807821659263e-02,5.993902067585718876e-03,-9.808073759306964234e+00
2.186203311133907978e-03,8.062836895760322128e-03,-9.804981297930918771e+00
6.121667775707991671e-03,-2.114307150304466955e-03,-9.794008894221500228e+00
-3.422879176705248723e-03,-1.421351819074558346e-03,-9.809805589847981011e+00
-1.469777121555431755e-03,1.288117415945051487e-04,-9.802367316505067762e+00
1.993990091762570913e-04,2.588658010910636383e-05,-9.805093212636679212e+00
6.660827638072198617e-04,2.536413305958766518e-03,-9.797256538971542028e+00
-3.972659588605570880e-04,3.301248635281512842e-03,-9.799278843993123544e+00
-3.031105328254996619e-03,-6.921465403658722676e-03,-9.806161254734959698e+00
8.389081597809228824e-03,-1.082493982052899588e-02,-9.801768953121705152e+00
-1.049345259539869422e-02,-9.822818485180889042e-04,-9.807446003313112115e+00
3.385357529019136953e-03,7.289011789231204666e-04,-9.800891766983420794e+00
4.190406440962959108e-04,-7.012174458654812405e-03,-9.806431254025330446e+00
-7.686663421078193843e-04,-5.042166908329417593e-03,-9.796029517190186553e+00
-5.760404574905193115e-04,3.111799341477536514e-03,-9.803439195327001698e+00
-2.770906773132288288e-03,-6.537037805969148074e-03,-9.801288662509666239e+00
6.028121052801787248e-03,3.819315984857135290e-04,-9.800160262545182022e+00
-4.362562106932354740e-04,-8.150091773748322291e-03,-9.801485190296725492e+00
1.897592547057891854e-04,-9.929824363019866193e-03,-9.798019579480133245e+00
7.988038313173646127e-03,2.112581480961628691e-03,-9.804737419132806053e+00
6.590067999089723946e-03,-1.072855848943793031e-02,-9.804037270334005072e+00
6.942320069134082445e-04,1.676651241188520033e-03,-9.807484701982428277e+00
1.092320573894419106e-03,-4.830604000804491517e-03,-9.801047829774670817e+00
-4.458407395846870859e-04,2.192655204679332462e-03,-9.806571443412154920e+00
-1.044369142180393874e-02,2.815182611714879980e-03,-9.804094526557021183e+00
3.579145914026615402e-03,-2.506391520821468592e-03,-9.803414748075137908e+00
5.163238787121699098e-03,-8.583471638364063502e-03,-9.796707136015820439e+00
1.375139929486014463e-03,2.689767845273210826e-03,-9.793517604297065304e+00
-4.915040716647530242e-03,-8.634641935510740246e-03,-9.801941639038457055e+00
1.255286129128293550e-03,-6.604769241330742634e-03,-9.806167336681186342e+00
-6.213290009485319433e-04,-9.368277511732520666e-04,-9.807979966822482965e+00
5.587423386900951597e-03,-5.575300934297254193e-03,-9.809788474588886587e+00
-3.814163360253658690e-03,4.675491813858927669e-03,-9.804466803664475094e+00
4.918405966250324803e-04,-1.157179563178326390e-02,-9.804010585357755048e+00
1.786865003545672846e-05,-2.363274570013673258e-03,-9.802946965202215424e+00
-1.498844689387525408e-03,-1.341253804267159011e-02,-9.801379158564342831e+00
-1.952610194613122949e-03,2.113245858196242510e-03,-9.804516713901049840e+00
3.606876503840769632e-03,-8.996744310445253801e-03,-9.807956909817955093e+00
-1.241926402023531403e-03,1.859541097988184552e-03,-9.797945398939523542e+00
-2.968586538905561290e-03,5.796208218679474878e-04,-9.802999543818208039e+00
-3.599739765087202163e-03,-5.383695344799039120e-03,-9.794755597051151952e+00
-2.206269092989432846e-03,5.328949134685513102e-03,-9.811098455704138743e+00
-3.310116118229592883e-03,6.829361991953424721e-03,-9.795968142270087498e+00
2.896716965803514988e-03,-4.463807143527396756e-03,-9.801827922768605816e+00
7.363785212094969487e-03,1.852896067240063487e-03,-9.796860299937408811e+00
1.842587303027080556e-03,2.593881327434977707e-03,-9.808103256800418279e+00
-6.794897445200758467e-03,2.217301022740317089e-03,-9.803102991280731260e+00
6.363681916035236752e-03,8.088908516992075141e-04,-9.804001702912833238e+00
4.954530700629231239e-03,3.024356960351388870e-03,-9.798272854435522206e+00
7.916702937901454922e-04,-3.393025203640336832e-03,-9.799761593933910220e+00
1.362678412105978662e-03,-2.180006539610150357e-03,-9.796748772617032586e+00
-4.023059482952271761e-03,5.471060392912389936e-03,-9.800373466045366300e+00
-2.167733038987529597e-03,3.854567490419698057e-03,-9.808829106486653515e+00
8.263979781920278490e-05,-3.775785996074656169e-03,-9.805433069836665183e+00
4.906553492684280872e-04,-4.395503568975516373e-04,-9.801662499908751158e+00
4.269513723658333731e-03,-3.107064221004219359e-03,-9.801564313476566426e+00
1.108372521194599114e-02,-5.245748238739210423e-03,-9.800508991424278449e+00
-1.846779036597682999e-03,1.637029017829521845e-03,-9.809850007677917816e+00
5.425992072220461523e-03,1.486733927773299874e-03,-9.801631716067188194e+00
-1.146549850415840184e-02,3.344735568517852742e-03,-9.798795488152590494e+00
5.182390447149391559e-03,1.123544468834940593e-02,-9.807791837365984478e+00
-3.359363768942152766e-03,-7.606998184693773528e-03,-9.798334254856545300e+00
-1.898140463617467967e-03,7.438861637788029592e-03,-9.800628997275277143e+00
-4.779655609917998760e-03,5.154473718231247390e-04,-9.806417539974816577e+00
4.017441504170916021e-03,3.010338894459553289e-03,-9.804208543023557709e+00
8.133091115005481112e-03,-3.622168103003025534e-04,-9.794401015904911745e+00
2.436172759344988267e-03,3.569790419338258330e-03,-9.804995733925474966e+00
2.754116794655230537e-03,-3.062914974423982823e-03,-9.813984870113037218e+00
-2.429404105354299962e-03,3.119521738291164848e-03,-9.799685172506171327e+00
1.236962728496811270e-02,4.377496654062746489e-03,-9.790855440324065739e+00
-7.299401649974453883e-04,-5.531018110966782163e-03,-9.800162507472993667e+00
-3.899556916911738145e-03,3.385950697860842448e-03,-9.801970362269493364e+00
2.718625042609367545e-03,-1.677495720243926767e-03,-9.791356167557889734e+00
6.245682629911697252e-03,8.863226509236811013e-04,-9.801309353320659667e+00
-4.306917315353618820e-04,2.429302070522366096e-03,-9.812076764350527114e+00
2.838090734863460158e-04,7.259133941488938105e-03,-9.802455657995500005e+00
5.242045924131155145e-03,4.893852286594213390e-03,-9.808653159644478592e+00
1.296580771406645460e-03,-7.140185561405265439e-03,-9.811312803113475312e+00
8.623561332201342463e-04,8.539454565047039898e-04,-9.788573257492590329e+00
1.759946766387731135e-03,-5.434381461142690287e-03,-9.806035043908037707e+00
3.097878303586311562e-03,-3.204005586181711031e-03,-9.805579225615003836e+00
-4.060835861592701317e-03,6.747029182754992437e-03,-9.805144776786567817e+00
7.888062281190914024e-04,6.092469514383959785e-04,-9.798877164559243624e+00
2.369069233146686541e-03,4.269599398962337783e-03,-9.804138018718367320e+00
6.055268782511789676e-03,-7.128922341959481775e-03,-9.803774612784232900e+00
-4.411425471951791084e-03,2.696070383193993527e-03,-9.798459601864552226e+00
2.905429024708334942e-04,3.812218139866231474e-03,-9.797454896079743847e+00
-2.601488771079098466e-03,7.644538636231812227e-03,-9.811558362547206258e+00
-4.292082585861376788e-03,-1.423317778439192561e-03,-9.802638354013344824e+00
2.787866082854000742e-04,-3.088933018111772802e-03,-9.792463391259742522e+00
-6.738038461874940217e-03,3.984828914746536485e-03,-9.801960146421068387e+00
3.531175705537536059e-03,1.377121322787357854e-03,-9.799767795972011086e+00
1.864509517312007772e-03,1.049533122323149503e-03,-9.804429163100868649e+00
4.327338170013771308e-03,6.005547591763624182e-03,-9.802893619854572194e+00
-5.795902514658768205e-03,6.388637043810790027e-03,-9.799573076774635183e+00
-1.692796389108601777e-03,-2.071300271559900746e-03,-9.802676382077052608e+00
1.807900186431132556e-03,9.957213828908312130e-04,-9.810536255829545027e+00
2.897007040760511774e-03,5.969741315339009008e-03,-9.801037875302050395e+00
-3.559904800273331997e-03,3.785062146266243320e-04,-9.806647072143483967e+00
1.013646628614957388e-03,3.300610878312146366e-03,-9.811125038269919330e+00
3.058869495513565160e-03,2.182465201441963557e-03,-9.801541956375301012e+00
8.992467144504038157e-04,4.976461724178094827e-03,-9.808520640036634930e+00
8.035886371804554923e-03,-2.909845648060085943e-04,-9.799001360855843501e+00
-2.185167152140812981e-03,-1.468508783030517909e-03,-9.803255948732214620e+00
-4.230636182912184823e-03,4.607835449640049381e-03,-9.802376692059171504e+00
-5.358781333568091512e-03,7.081900444441270159e-04,-9.806866501312912376e+00
-2.759847740363325936e-03,5.191888241251772437e-03,-9.806957758542468540e+00
-3.710699259299047540e-03,1.330071346897865325e-02,-9.796272696327120499e+00
4.290349542823263494e-03,-8.844179296204437470e-04,-9.795665704089435266e+00
1.025010018041646763e-03,-2.692659314967009530e-03,-9.811646187480727477e+00
7.575432452478800087e-03,-2.496459590511995990e-03,-9.800608750125585189e+00
-2.876306887302060734e-03,-1.108782073919106249e-02,-9.798604822095535738e+00
-9.963935463592834413e-03,6.004524815396000519e-03,-9.794083746867785933e+00
-1.496394433061040696e-02,-5.995402793722342562e-03,-9.803167785905907650e+00
-2.381861874632651335e-03,1.215964598034848031e-04,-9.807505505707592164e+00
1.633472732902751688e-03,-9.151208476275737684e-04,-9.807029787151424927e+00
2.284583059541862079e-03,7.635602212794367211e-03,-9.804880927158805548e+00
-3.150663705120094148e-06,1.613684332802101410e-03,-9.802385531512110006e+00
1.216854374185738399e-04,1.070602089127558340e-03,-9.808053858857920915e+00
-4.775152300937932949e-03,6.970098395239996423e-04,-9.802243767688542775e+00
2.114569103723898565e-03,9.299921390678995287e-03,-9.809584442213310496e+00
1.946822452110277997e-03,-2.466173116998398272e-03,-9.795590187538353533e+00
-4.458419493143891965e-03,-4.125169241071175753e-03,-9.805722392744778304e+00
7.453146967617852933e-03,-4.120833258292931275e-03,-9.807006814825310670e+00
-3.253216261690990239e-03,2.163800408510544847e-03,-9.799498549378277801e+00
-2.966730460817042832e-03,1.447631137085523927e-03,-9.805263806703651497e+00
3.234245444244418337e-03,-1.986895793628575696e-04,-9.805618031616592845e+00
-4.746199782772294457e-03,1.468876196262046234e-02,-9.799430101606747101e+00
3.863264031506474881e-03,-5.047212242769751923e-03,-9.809007267515632122e+00
-2.923503043455327917e-03,5.845181048295704750e-03,-9.797411389259336190e+00
6.462474154865787898e-03,-2.696596709124463465e-03,-9.798323030581688187e+00
3.733885832780840536e-03,6.894305509009267773e-03,-9.800045504617623138e+00
4.855910759764293103e-04,-9.783898424998212912e-03,-9.797297172419071387e+00
-7.974168178259929615e-03,-2.163648603890751428e-03,-9.803325907089183389e+00
