gyro_x (deg/s),gyro_y (deg/s),gyro_z (deg/s)
-4.522667881379581478e-03,4.476046861989570191e-02,-5.667490657928176551e-02
-8.615093782593689908e-02,-1.421086109067176695e-02,-2.394562015608839647e-02
-4.377744777858194776e-03,4.893788846675163617e-02,-4.334911518466013497e-02
-1.955470956466236893e-02,1.968464088161268281e-03,-7.606529763228522811e-02
6.853103235550478400e-02,5.071988061022020267e-02,-3.334090190858022586e-03
3.425122866282027511e-03,1.663336691087210009e-02,-5.110184362935804060e-03
-4.692749592263388558e-02,-3.086361988802396178e-02,-2.506483225159456679e-02
-2.465326605818067562e-02,-7.006853025219998352e-03,9.710532556036436530e-03
-2.837099683032118930e-02,4.901132802496000612e-02,3.681204403282340668e-03
1.151278689032642251e-02,8.753024152450535143e-04,1.034967884699606287e-02
3.516509063141493724e-02,-3.756673849555639683e-03,9.635254895984106394e-02
4.873638534280968354e-02,-2.579648340300176937e-02,-5.264963596589279649e-02
8.597281852807730704e-03,-4.750608444188370028e-02,-7.205766448758274545e-02
-9.176214339379124604e-05,3.624726263316015162e-02,6.140105289340958179e-03
4.154811951892587330e-04,-2.280555679779870670e-02,1.761791319733258324e-02
3.589894709584001697e-02,1.488202086662100687e-02,-3.120601212709630048e-03
7.431019755827107665e-02,3.268977825914654717e-02,-3.606666147013327939e-02
-1.739917785370777206e-03,2.964760902024040148e-02,2.881849206668315663e-02
3.153885843351220825e-02,-2.738942794112414481e-02,-4.712031250102889646e-02
1.839185769178662208e-02,5.238726905971680115e-02,1.950359857778988237e-02
3.714919834263057802e-02,1.406095705750660951e-02,-5.665065754993025074e-03
5.981681156968308988e-03,4.436197506386296840e-02,-1.790929987918723348e-02
-5.709514921212424654e-02,3.291639043743430776e-02,1.136658890158697907e-02
9.924441320287490098e-03,-5.654335968422938286e-02,-1.078360206934380651e-02
1.290340384272109335e-02,-6.453460848463758726e-02,1.563703739543198870e-02
-6.451963224814914744e-02,-7.804244579173333536e-03,3.896632380423961650e-02
-3.984275828292286464e-02,-4.293300337122610277e-02,-5.450236579834426276e-02
4.703760751693217279e-02,-1.933151542793151928e-03,3.799973318425245439e-02
6.034038537946456726e-02,-4.105910965976540539e-02,-4.156323671042494103e-03
-3.405225548313019213e-02,1.456541305926333484e-02,-3.668406692819733278e-02
6.178200449963452967e-02,7.662218873368413508e-02,-6.640328033340393843e-02
4.710517727220788625e-02,2.215787939205466836e-02,1.385168515042751840e-02
-1.947251785695229553e-02,-7.612833411664796102e-02,3.562291234647675664e-02
2.626507053700496627e-02,-1.344344664835671506e-02,-4.949148380956823468e-02
1.027307355936957628e-01,-1.113504126649273417e-02,-7.041462276451704305e-02
4.798979932445433111e-02,7.893475149942823232e-02,-3.855289643044072789e-02
8.738772540646987108e-02,1.915706120041595420e-02,1.790200884023229397e-02
-6.655089220122901127e-03,-1.731452304015717800e-02,8.252841492299793635e-02
-2.611331608454965647e-02,1.706854127499029400e-02,-1.503217657115983250e-02
1.969325359105091652e-03,-4.031737902638606041e-02,-2.898043942057056815e-02
-6.514442526120435561e-02,1.056709279321228594e-02,5.283344868786503390e-02
3.775012202300884884e-02,7.952705220779921272e-03,-1.423127266735855004e-02
2.160912601580063444e-02,8.322777984230974452e-03,3.224286609603430054e-02
-1.054303362728053681e-02,5.057083292716023359e-02,5.051231869981643446e-02
7.488684581208239488e-02,-1.498409808169195133e-02,5.563549544304277616e-02
-3.017497203401258918e-02,-3.697775624764464142e-02,2.675810635295461717e-02
7.018903552021035601e-04,3.304668699216445349e-02,5.862417474009828933e-02
-2.793214201824878104e-02,-1.394989605893719523e-02,1.897512834750341229e-02
8.974881433936958072e-03,-2.866326786638784610e-02,-4.948508644150324126e-02
-1.314664671447385432e-03,-1.992115827161941924e-02,-2.805269765313273683e-02
1.796868037667665591e-02,-1.767774093692785903e-02,2.704307944946910541e-02
-4.087168505157820486e-02,1.491258461960802764e-02,1.503847863846526078e-02
-4.242458069536927945e-02,-1.527582829687299491e-02,3.143531919248216365e-03
-2.789881850935942847e-02,5.317218376830568083e-02,1.566421788980681268e-02
3.184592339176953169e-02,-8.065879953375718406e-03,1.759208422687296922e-02
-1.477701602913747414e-02,1.215628178831126491e-02,4.434132117450798743e-02
1.953545370250154428e-02,9.876626174483421963e-03,6.052500344528031345e-02
-3.841814394081675271e-02,-1.637599070815776853e-02,1.246909263302684902e-02
6.918191978482196580e-02,1.847538989069763202e-02,1.702950161947594868e-02
-2.993696006205106078e-02,-3.005964516945902609e-02,-7.178467744241825987e-02
9.415185093832545427e-03,9.599380821086218873e-02,-7.969266394808229015e-02
-1.803863311869660993e-02,7.136226532371964942e-03,-6.516219943273149351e-02
-5.952360358811341345e-02,-6.911058941511605269e-02,1.934111927280692325e-02
7.053451817196579321e-02,-2.584654490022152834e-02,3.105515119133024290e-02
-1.597619567609027957e-02,-9.619466668416344970e-03,4.139203137540010263e-02
4.314967322478976096e-03,2.069787248282111206e-02,7.445303532377248179e-02
-4.755068065136792282e-02,3.582121250812014823e-02,-1.553781155180943528e-02
4.148211475106842322e-02,-5.074293642251765518e-02,-2.360820583205657658e-02
-7.469109358045660646e-03,2.428953104307109492e-02,-3.620769073497569213e-02
-4.525663838177355208e-02,-1.702390922028953341e-02,3.564876068673875856e-03
5.147075120243123358e-02,1.469236052108357138e-04,-2.512390769089641734e-02
9.094229058601332669e-03,3.799269975588487336e-02,2.750357804250879584e-03
-4.577289036873470607e-02,-1.212544520047042400e-03,-6.715948847428811208e-02
-2.656172100114445253e-02,-8.136211789473840605e-02,3.887446197536205406e-02
-3.657802012372177169e-02,-2.467433789196128713e-02,-3.693867703623448986e-03
-9.052910847864593588e-03,-5.887533904979434622e-03,-7.443605868664365972e-03
8.706929332936610977e-02,7.678560359390219914e-02,-5.184677299130182465e-02
-3.277455663212879011e-02,9.353659209718581972e-04,-1.734293423158016255e-03
1.836981762962869649e-02,-4.103115789614282527e-02,-1.773214928984513834e-03
-6.227613256669267683e-02,1.617808873866108388e-02,-2.061496936502980187e-02
8.439640695956850125e-02,2.060370871017735105e-03,-1.016763641363045700e-02
2.652549337084754433e-02,4.444026310946469320e-03,-3.491689473866284310e-02
3.168712229491645483e-03,5.489303872739103446e-02,-2.893349240032630845e-02
7.166947249304057854e-02,7.681635039446758906e-02,-3.324201575589346303e-03
2.446665401731350914e-02,8.899657031549955410e-02,1.091769390715814116e-02
3.802940851119120808e-02,2.380504625329259855e-02,2.687577503781315644e-02
-4.009884036789213013e-02,-6.507848979387322041e-02,6.391536045775123888e-03
-9.505959325352714845e-03,5.952483764150601903e-02,-9.265129603138229017e-03
1.320028768928867453e-02,8.041138923704195529e-02,8.545416038055383967e-02
-4.035104860391058867e-02,5.827309250107903793e-02,-4.106283072841614146e-02
-2.616829289464129085e-02,7.660216531438016063e-02,-9.659283907650199896e-02
5.607700701336650051e-02,-5.858762934739501771e-02,-2.957720781628715712e-02
2.588377000252802679e-02,1.718947398091777434e-02,1.591642837330845342e-02
-3.893232361513350448e-02,-7.723452808208428055e-02,-8.327561170233185872e-02
-5.785831733983712311e-02,9.744015510479782372e-02,-2.411781648963433680e-02
5.977009439432742072e-03,-3.354992695568172895e-02,1.094707304259947243e-02
2.364868198708247951e-02,-3.514175679844049743e-02,-1.983587069798438494e-03
1.001272787788796970e-02,1.001137913705123228e-02,-1.239106726453212230e-02
2.332135738790478210e-02,-4.001875934525121054e-02,-1.988792667025652064e-02
-5.221914830551435682e-02,-5.627822933667373656e-02,7.514944000089554543e-02
-5.516152993628389498e-03,-7.989960203727039523e-03,6.974855011305151550e-03
1.210551492575991789e-02,4.321118397226755142e-02,-3.620660634267193478e-02
-1.246924920304436427e-02,5.033597105458489929e-02,-4.757033122324468011e-02
-3.962334267750589750e-02,4.103531521307154928e-02,-6.763111185439292516e-02
6.096903441608413771e-02,-2.739168969647926694e-02,3.520659604585182900e-02
-3.108720849753673909e-02,4.581717278797626386e-03,3.284685498790487074e-02
-1.982316437396046925e-03,3.070248805388055280e-02,3.485554574779833881e-02
6.566448701744428962e-03,-5.370248317154174139e-02,2.281293072635571378e-02
-1.933034646945653657e-03,-3.294197962147375758e-02,8.571782905364548101e-04
1.539849563713791177e-02,1.887666914717677294e-02,-4.005813085467901935e-02
-2.566487715040736365e-03,3.927418841775222325e-02,1.946866723336621377e-02
2.113727424238517547e-02,-5.231781751232569139e-02,-6.111445125592440686e-02
-2.333720700700939524e-02,-5.681675563711847260e-02,1.154859611443136841e-03
3.987048484187118158e-02,2.711416712964522316e-02,-2.265843449908837987e-02
-1.380014273828296563e-02,-1.165295158919797854e-02,1.184651698966298836e-02
3.056440318478100687e-02,-2.631476767530477323e-02,-1.312071587291899905e-02
1.003767738993118809e-02,5.348095922729528828e-02,1.225968369749457203e-03
1.392435330134055710e-02,8.996884210340228005e-03,7.219794556522712847e-02
-7.589517796144376605e-02,-5.915110362530991844e-02,-2.172738609767546625e-02
2.534926746250705173e-02,-9.466209831920166171e-03,3.060969461440155026e-02
1.001417032370759477e-02,5.368607577436493999e-02,-2.021330724425122322e-02
8.111379592111533574e-03,4.200322727743015933e-02,-5.255431358400502323e-02
-7.275319787964039213e-03,3.332380667232695548e-02,-5.186043202380858502e-02
1.334173487698074312e-01,-1.021196718564716145e-02,-2.350468513875993148e-02
4.672040676960088207e-02,-2.794858407686330593e-02,-3.590369870462203992e-03
5.352699326193195023e-02,3.603714032002500872e-02,-1.581698760760612971e-02
6.327578101708412027e-03,-1.190580990938722335e-02,1.882907241049669791e-02
1.373762808063155177e-02,-4.318318318639486481e-02,1.237826883404327845e-02
-2.764321152874767845e-02,4.568500537224896851e-02,-5.651174020039115287e-02
-1.109410687959935023e-03,-6.151072070815046151e-03,5.150758585598914918e-03
2.762526497892177097e-03,-4.677526664999050177e-02,5.836972016441555750e-03
-1.652486301007446284e-02,-1.010236372222182155e-01,-2.823233758448776519e-03
1.033503259316083736e-02,1.263989761766964176e-02,-5.595984827659662014e-02
-5.406222821683012020e-03,-1.665220326418731175e-02,-7.357691429175254767e-03
-1.711740858970947979e-02,3.971902639643341143e-02,-1.365273906234765536e-02
-5.876624619766001451e-02,3.841065552066261213e-02,5.424296581486846847e-03
-2.082018047051399645e-02,-4.662583782479040882e-05,7.237869902037338821e-02
-3.430810516671241317e-02,-1.907108975342520357e-02,-6.871698270029920341e-02
-1.927354358656718433e-02,-9.987858259841311814e-02,-9.568799864589074000e-02
-1.987090989802330065e-02,3.166817288781918066e-02,-3.075807752599168596e-02
2.134482923579654121e-02,-4.795162947278636817e-02,2.252495729865902283e-03
-1.242031327483483077e-02,2.006741104016642949e-02,-3.978885846148359079e-02
1.290960873723628888e-02,1.262209513418117643e-02,4.926544919530403271e-02
2.347850576427511042e-03,-2.837309193493262049e-02,8.837107229083548954e-02
2.044610228450603404e-02,-1.788621853231259218e-02,7.804137251054456791e-03
1.233250751491642844e-02,-5.045081388064562994e-02,3.143111663698871378e-02
3.930547219465486269e-02,-2.134099063073296651e-02,-2.413780646438423976e-03
9.713446321828661523e-03,-2.990540656324933155e-02,2.199547926135920171e-03
7.440112322325613536e-02,-4.958709002221027562e-02,-4.862743549900292936e-03
2.096571495398852347e-02,-1.620774817639588847e-02,-2.035827040603637242e-02
-4.103681216347637717e-02,9.081005247414900006e-02,-2.279352622888677904e-02
7.638946760526102442e-02,9.462972002225301590e-03,-3.080013490845753127e-02
7.453265189605520757e-02,9.644959794737519021e-02,1.406099468395888112e-02
3.755875676361054155e-02,4.686973758613468405e-02,2.088405445866671484e-02
-1.357407640747938966e-02,2.265908747504670126e-02,-4.577566345993268337e-02
5.849156560801972021e-02,2.740211720283351401e-02,1.461565713968094975e-02
-1.054436416602631994e-02,3.258093389996184058e-02,-5.825716017005336256e-02
1.039486478137780466e-02,-4.958452098174938316e-02,1.615964026623274707e-02
-1.582664286045231891e-02,4.473578662313563992e-02,-4.625944487431274399e-02
1.996791844292733140e-02,-6.647589550945672519e-03,1.169991874477454424e-02
-2.793324730999511771e-02,-5.660981088095690811e-02,-2.958883185208199124e-02
1.853112600332033205e-02,-9.574972079464769137e-02,-1.082263114372700730e-01
4.280623657059834386e-02,2.100312593439655415e-02,-4.500250454445299531e-02
3.166532778914898233e-02,-3.384012510110432498e-02,6.323486386567275276e-03
-2.646271452463944129e-02,8.250213068135819894e-02,-1.450762189962057254e-02
-3.162054302886493917e-02,2.018221885381576292e-02,-4.892117658116438596e-03
2.715600132413026162e-03,2.905746714574833009e-02,3.512557557613623510e-02
-2.257238835765477958e-02,3.895336216001024643e-02,-3.570138718622564711e-02
3.894893068766322464e-02,5.147068328413458016e-02,-3.018522358548742998e-02
3.076928222363323542e-02,1.364810242642986240e-02,-5.040872660905424546e-02
2.162214219685890809e-02,-2.944822009885293343e-02,2.208831128895083137e-02
6.203384157764672141e-02,1.159067817382879173e-01,-2.443478039539782182e-02
4.100557552166707309e-02,4.682253664946439686e-02,-3.079040875317617595e-02
-8.680114109671298317e-02,-1.856088684196528782e-02,-1.899209242265743544e-02
5.702696227319166422e-02,2.031413391994933704e-02,1.117244060359902889e-02
-6.780206575097422195e-02,-1.731385471012161434e-02,-4.084624935144054447e-03
-3.120145950888222539e-02,9.113684342966122884e-03,-5.471511602179157663e-02
-2.041363246665759898e-02,4.681619170195534113e-02,2.110574994621571346e-02
-4.897394100609613055e-02,2.047942936392414814e-02,1.179371266518314601e-02
1.096835250374428826e-02,-5.573316069077109691e-02,-6.563967665468049134e-03
-2.559161615225453643e-02,1.669827466423690412e-02,-6.230720977662705488e-03
5.037366042216811363e-02,-8.904828435426165312e-02,1.429318581608986401e-02
-2.094041004576770518e-02,2.234897259980457573e-02,-1.883911479331661434e-02
-2.690696573901463565e-02,-4.391518358933410408e-03,-4.694433381230950914e-02
-5.498893679298744348e-03,4.253631206595790554e-02,-4.803437859173876473e-02
7.161493992066992470e-03,2.083168736632580714e-03,-1.486997406580480366e-02
-2.879076344313935554e-02,-1.351902198752140058e-02,1.227360918727653412e-02
4.275985211341882392e-02,3.706638564999248375e-02,2.366547054492561253e-02
-1.833399158707013643e-02,-4.822092687472526867e-03,-6.899604951116425355e-02
1.357281809583662374e-02,4.865643538429267195e-02,-1.777631112743692423e-03
-4.644614774589528317e-02,4.071552802493945411e-02,2.369053583809208399e-02
2.797217872189625837e-02,1.767731370128802076e-02,3.750634490185778339e-03
2.015838005973316985e-02,5.486997175808436267e-02,-3.828145656630606991e-02
2.984441990397620689e-02,4.187737366779130908e-03,6.927594189059584073e-02
-1.893832764142794334e-02,1.011982840888936072e-02,-1.670665262556953259e-02
2.937544496854868625e-02,1.915017291538775868e-02,2.992746200126174608e-02
-2.661570140633563036e-02,-1.888610545845137781e-02,-4.236960862531936184e-02
1.456079986352296941e-02,-5.738268811187401813e-02,-6.707090368944987335e-02
1.922055544304144756e-02,-8.777269488174687176e-03,1.837085616399660934e-02
-3.242361576614290197e-02,1.871628214455116693e-02,6.611842765424917612e-03
7.051926069148072018e-02,3.440559834014229879e-02,7.491182899840135440e-03
1.157058755374467014e-02,-3.945026354353357335e-03,5.529301565189113921e-02
4.536951404443707869e-02,5.836271866467176994e-02,-4.243690390909721222e-02
-2.793039837393235941e-02,3.141511165428860497e-02,-8.350920089225426224e-02
-9.238055942640922141e-03,-2.136763220446153896e-02,-7.363648249393144052e-02
-3.280644971776162239e-02,4.845818813359355909e-02,3.589823212790394652e-02
2.366499805282314996e-03,9.137404239360866209e-03,2.232496459773983602e-02
-3.848553701522163493e-03,-4.290141714268535383e-02,5.204601055688877487e-02
-2.233782355478032555e-02,4.566765319771912135e-02,6.883010839175487949e-02
1.465156510478956078e-02,-7.908244185739184140e-02,6.704320882568889917e-02
-1.965790720112580575e-02,-2.602811733336543240e-02,4.832065897958627565e-02
-6.185694848647726313e-02,3.570921721012135924e-02,2.863364470833792280e-02
-9.266186513755183402e-03,-6.066161465875594822e-02,-2.899021621483551317e-02
1.959099767903548991e-02,-1.928060094802588539e-02,8.289912120755991987e-03
-1.132237383905388209e-02,6.205217473444893383e-02,-1.874711429460542214e-02
4.202472705603742947e-02,1.494802218759637598e-02,-2.897321233078833241e-02
-3.391437447695803270e-02,1.435200358512358663e-03,3.429750666359753647e-02
1.286178911338428134e-02,-1.377264299739247751e-02,2.526676247608272002e-02
1.474954120323237507e-02,2.735899517899166578e-02,1.398275133101357405e-02
1.658488788964333077e-02,-5.298018719478434641e-02,2.337610431872308089e-02
-5.624814564139988399e-02,3.556444374923944246e-02,-2.101103405845644936e-02
2.026537538794631957e-02,-1.632047546172002341e-03,3.247345731114487100e-03
5.620283188672057367e-02,-1.423787201822152362e-02,-6.494737024034201271e-03
1.720613602003322543e-02,2.508362874601674508e-02,-3.121230511903853866e-02
-1.053071782391780051e-02,1.189238808066645364e-01,-6.780746138559837211e-02
8.531163151183199234e-02,-2.751014041224408846e-03,-1.135542484604468716e-01
-3.144338315347849216e-02,2.751283017847288778e-02,-9.678896850307906752e-03
-7.415000316361290700e-02,1.746772618406483221e-02,1.346832033058966739e-02
6.302904425583588655e-02,2.897842811797087317e-02,-5.617294468817308345e-02
-2.506643799843497056e-02,-2.039203514007939880e-02,-3.668394043459421300e-02
-1.119975639558518261e-02,7.718108324027828440e-03,-7.148069582831585137e-05
-6.690150514467249621e-02,3.321002018665951405e-02,-6.546738508394472911e-02
-4.257629421080022514e-02,-2.543272045170964432e-02,1.142695657792923772e-02
-6.426151657521239624e-02,-7.917969778723273760e-03,5.833745686641213929e-02
-2.070564950940056298e-02,1.573721352124106757e-02,1.862870780259099279e-03
6.850065118364058458e-02,1.878321506787175924e-02,7.962457907446847741e-03
-2.560942662386773636e-02,-1.183246458431522034e-02,5.318748139905799671e-02
-2.871335398558826600e-03,-2.451202535899316831e-02,-5.823163039948672792e-02
8.197443326147704767e-02,-1.752105320649815362e-02,3.952775469368875055e-02
-4.481581925520448234e-02,-2.965856193302766897e-02,4.471887808830682029e-03
-5.285562944969507404e-02,-2.092156967026546910e-02,-1.932871645287436921e-02
-3.858908410512188608e-02,6.731032025866186264e-02,6.266866246188760627e-03
4.391740171640629020e-02,-5.270830739741523899e-03,3.528369845607948890e-02
-1.401469143785943677e-03,3.078663966388632458e-03,7.584837843630866383e-02
8.700047243304814826e-02,8.646967836685440960e-04,6.230799127831764678e-02
1.325502753371726392e-02,1.013459466546839070e-02,-1.054328620193509258e-02
1.112465646212997677e-02,-5.524976024836673189e-02,6.673890441937779805e-02
-3.432024504543197251e-03,-8.764359900725599006e-02,1.897497894238415334e-02
5.515171016013926952e-02,-4.576627623482828339e-02,6.644730080757160762e-02
-2.799099917973061832e-02,4.456096014724268695e-02,-4.791985394982561930e-02
-1.905163607328834658e-03,-1.500878703614922510e-02,-5.585872027371080462e-02
2.216790679394282579e-02,-2.327846715191487018e-02,-2.878223765960400207e-02
-1.652542534204049993e-02,2.253313004872113320e-02,-4.242026788471529170e-02
8.226683466446610415e-02,-4.456641891254750631e-02,-1.986261445317631311e-02
4.294998701496599049e-03,-7.107945405353659207e-02,-1.053071815822808309e-02
1.946487029674179997e-02,-2.033052242352055908e-02,4.380257830289636251e-02
-1.350172727036313275e-02,-2.464172888313963250e-02,-7.998920766485758185e-03
1.355524482802062097e-03,1.716115324102741521e-02,3.260110709896679032e-02
3.412830841887588146e-02,-7.418771067534693509e-02,7.897044584312849780e-02
7.031441233266848799e-03,-1.637939008941288049e-02,-4.363144914157695946e-03
-4.579488898807789962e-03,-5.138125245552006143e-02,8.457869817780830704e-03
-1.096938232607907841e-02,4.359099089508455122e-02,2.892256457130389438e-02
2.232672046094546256e-04,-3.608292103576928728e-02,2.657802524504861846e-02
4.929124622741320322e-03,-5.905741665418931530e-02,-1.371745250870261452e-02
5.059816990559361932e-02,-1.125817561010901413e-02,1.428844551603123368e-02
2.310312333579494712e-02,5.828114839521260360e-03,-4.197732668234858966e-02
4.259491005444988876e-02,2.607866043359108972e-04,6.640026150640326863e-02
1.277257042209235804e-02,-2.831592245821050804e-02,-7.275862889643293363e-02
8.811128033431864584e-03,-4.366065936787359020e-02,5.040565285042497741e-03
-4.053110271731707320e-02,-5.893125149307355815e-02,-1.292141055690115489e-02
7.881538326360411351e-03,2.138371344754780995e-02,-2.612793260069052464e-02
2.701464688917212115e-02,-2.099438262239729236e-02,3.151466594103038976e-02
9.626489183088535184e-02,4.524196418308544521e-02,-2.534405215341238235e-02
-2.540870412733550396e-02,3.933902321806367897e-02,2.714545212839461485e-02
6.715280660217259889e-02,3.726416931406005550e-02,-4.233600523469807642e-02
3.336018914270191121e-02,2.389308868941996192e-03,3.205291981789147593e-02
-8.193789660188725843e-02,-1.361404089324933300e-02,4.159387052397187784e-02
-5.333126187471404905e-02,1.859433239125586959e-02,-3.304268296923593834e-02
-3.527011252211881970e-02,3.241955545495903840e-02,6.938157257676033640e-02
-2.053290508181856988e-02,3.876184756184963831e-02,-1.365710962481688764e-03
-6.898196388059797679e-02,-7.779174406590844137e-02,-3.351903289468481650e-02
3.217379037870209124e-02,6.313804883508138122e-02,2.037147283540009096e-02
2.872982294060501610e-02,2.697043724841602028e-02,1.607016217326872123e-02
-2.086809135221466896e-02,-1.457763197713646958e-02,1.536309824953890554e-02
-3.466046494960583341e-02,3.846095711816022861e-02,3.136027207476862946e-03
-2.768613816282224777e-02,5.321768820113081553e-04,1.656298749497644995e-02
1.377495666927526681e-02,1.017906428151889309e-02,-5.506724998322143350e-02
-4.457968095047505630e-02,1.054439401486700727e-02,5.153122979129891312e-02
-2.395946410133598450e-02,-7.606186809467242738e-02,5.347134205174639693e-02
2.123201448181252435e-02,-2.711039491543436319e-02,-3.218777917711103387e-02
-8.924399519767222495e-04,-5.733506712467167921e-02,1.639320711336081718e-02
3.480603033615024822e-02,5.586897368468427688e-02,-3.501274024516721345e-02
-5.995805363919710224e-03,-3.121594191511791253e-02,2.761215318701447721e-02
-5.238314675806335363e-02,1.142497406913516172e-01,-6.527714680900141564e-02
1.599134298597794032e-02,-2.075818768359389416e-02,-4.842992770701548544e-02
-4.959051679939801421e-02,-3.679024959084551544e-02,-4.246513787581873353e-03
4.657463855919149326e-02,4.519995779118353429e-02,1.243962836612092469e-03
-4.411342092511483237e-02,4.808623396766115859e-02,1.375231222206501659e-02
5.139459769701884562e-02,4.930839578643417265e-02,7.789474751882757841e-02
-9.726873295398702490e-03,-1.421905336761758801e-02,1.409358557163309551e-02
1.491527209502589713e-02,2.697194699492965961e-02,5.627925780159182684e-02
-5.673346579504308373e-02,-2.256406450121894655e-02,2.108515850646470405e-03
-2.547595695338810903e-02,3.888934836472145162e-02,7.264986441852165633e-02
4.514183392858515248e-02,2.064741463053679921e-02,-1.594813782774099839e-02
4.942862957047336470e-02,-2.257621776725238921e-02,2.590372270320803749e-02
3.285417763046491468e-02,-2.568240547860594410e-03,8.819437229135228262e-02
5.188623947143545384e-02,-5.232395533730127557e-02,7.086183738572718327e-02
-4.903420091141415249e-02,-1.211868925070569425e-02,-4.156709600709342263e-03
4.186508958046036843e-02,2.213918689207825300e-04,-3.024887826766628832e-02
4.230363053782833921e-02,-4.330414814996101647e-02,-1.096842415201032366e-02
-3.534044259122152282e-02,6.981167433510558976e-03,6.052650949154859961e-02
2.012630162764126110e-02,3.327667338239692629e-02,-5.221340786991645472e-02
1.151592613902354366e-02,5.032320039211507501e-02,-1.405128387365832572e-02
4.609784083736083449e-02,1.421775082971290897e-02,1.997180281812526922e-02
-3.706417010038228627e-02,-2.417349676619970356e-02,2.850973536273413919e-02
1.557071405053541899e-02,-8.766340541052598800e-02,6.158370917361029317e-02
3.793756626498417939e-02,5.189358231716220682e-03,-1.210483268651534224e-03
-1.580959741872912331e-03,2.224740950869355874e-02,-1.154893572136238798e-02
2.133383770353286524e-02,-2.955625153886500683e-03,1.320724346697299025e-03
1.167924590843277301e-02,-2.197576501182842493e-02,-4.612766318612366440e-02
6.630510024553681880e-02,7.047453876045112198e-02,-1.838337800220974511e-02
-3.538771312439498162e-02,3.120451674887440852e-02,-3.395556894284879057e-02
2.144439706101169615e-02,3.235980774441746949e-02,-6.535087363921497638e-02
4.086834000738898132e-02,4.564036098158402027e-02,-1.271432684452678506e-02
-3.046710377268750311e-02,-3.720545828857225318e-02,2.125557415779233406e-02
-1.881392117224918795e-02,5.924652454024438575e-03,2.495221639807953043e-02
-9.446980035240844231e-02,-4.654041851877915859e-02,5.589128324429432776e-02
4.636975601176702988e-02,5.148530197318225421e-02,8.203562130908352568e-02
3.155401873337143615e-02,-8.884871324420132166e-03,1.338500120998017788e-02
-2.919018099965331459e-02,-5.067049463065041726e-02,-1.646895737529596726e-02
4.397587703873785669e-02,-2.681011377069566701e-02,-3.181529648890678297e-02
5.889033601212578101e-03,-8.038344859765746142e-02,-2.028058429796429987e-02
1.263149114218173677e-02,3.899818805652147807e-02,-6.743646371426903485e-02
2.632684062161025004e-02,3.319872437399726955e-02,4.701071575524823354e-02
-3.988408198255942623e-03,-5.784448640930806712e-02,1.768483933646854134e-02
-9.759178545456275930e-03,1.336646299928693528e-02,-5.583282764317438942e-04
-1.266283099677209360e-02,-3.498182764454423749e-02,6.414922204420057950e-02
4.346347796780941630e-02,-1.057096213694763351e-02,5.387740243725100409e-02
4.965589378028233136e-02,-2.456656515597051282e-02,9.969787588943710560e-03
-4.029489756011405549e-02,9.617981689975621182e-03,1.706601836881871045e-02
-3.846695721915483618e-02,4.796999963212822404e-02,6.644651520330618899e-02
-7.489040162691510197e-03,1.563297542090255274e-02,7.227589295302487560e-02
5.278492558624215542e-02,-5.578954984341716328e-02,3.089113754699407410e-02
-6.405109281631822526e-02,2.130728251866843490e-02,3.799224861031907929e-02
-2.580328368430326660e-02,2.984751454344490226e-02,1.663350442496097648e-02
2.541198151464434812e-02,2.400147083977146115e-02,-6.579395069861018741e-02
3.526241741264582973e-03,-6.180612036146124200e-02,-2.380468900444449726e-02
6.700154338777875810e-04,-1.208901123542200154e-02,3.973582003823894135e-03
-9.263820829906127541e-02,-4.321554182954373026e-03,-3.082940444040368436e-03
3.902688944576740687e-03,4.288858860994479265e-03,1.040891486871051846e-02
-3.895037473168391773e-02,6.257274505594342950e-02,5.025226628278078866e-02
5.030711810782241555e-02,3.700683299942111870e-02,4.489528127014125874e-02
4.288621772620912834e-03,4.274149673939169058e-02,-2.170418969787739696e-02
5.626794895341674131e-03,-3.288778947020107313e-02,2.299394752112586537e-02
-1.703212058784205757e-02,2.145371548875359136e-02,-1.522176491997747662e-02
-2.263335477495787701e-02,1.152601247468559506e-02,-5.659123352120191963e-02
1.656279435315596502e-02,3.554188229191390484e-03,-3.935634235971891687e-02
5.115513945100265414e-02,-1.029289452831394676e-02,-2.611608815065961237e-02
-6.663693307947421429e-02,-9.309689369721274588e-02,2.796183087668885868e-03
1.300082526325548604e-01,5.015987312032798434e-02,-2.336703010004837974e-02
-2.630625434263610812e-02,3.216001174909009774e-02,1.622848346330650615e-02
-8.473157435669004256e-02,2.345788659702578369e-02,-2.589299225734903107e-02
5.901394080577452607e-03,-3.226529494930158865e-02,-9.374009949440764711e-02
-3.521333323926958275e-02,1.481641047984038652e-02,5.155533076299825823e-02
-6.191953142218200451e-02,2.424300559555326098e-02,-2.240078765090573396e-02
-7.644428100247513402e-03,-7.488520182081523369e-02,-2.083682368752262995e-03
3.061790977152342025e-02,-5.541102281175456362e-02,-1.671765876720953184e-02
5.531522049989709422e-02,-7.198143081250304998e-02,3.425640632397849994e-02
-7.520917482351087251e-03,7.092621799550519017e-03,6.175756287706937048e-02
-1.030387254762647892e-01,1.449530092199092721e-02,-1.989405945005626522e-02
-1.463908911533365852e-02,-5.088623536509630230e-02,1.900097182735386789e-02
1.851745208027083880e-02,-2.112333093747151627e-02,-1.471483661740170465e-02
1.252833790405404567e-02,-6.164151449646619596e-02,-1.110738449802528040e-02
-2.898692454144849787e-02,3.181768184937050492e-02,-6.352836874949864890e-03
5.351735112144635070e-02,5.182971158942875634e-02,-9.858873570869451305e-03
-7.499656762987501335e-02,-5.961105998365039821e-02,2.036041011039938300e-02
-4.536952958816459908e-02,-8.822157759688474543e-02,4.092753852087867988e-02
-5.100510904785363064e-02,1.265287974678099871e-02,2.112851809405004791e-02
1.893986662871503801e-02,-5.801228185717843301e-03,3.125400429314903472e-02
-9.983720981165941969e-05,-1.813840380027902793e-02,1.388009252685499031e-02
-7.174324921781743969e-02,-2.950706998455273830e-02,5.503690943977061767e-02
-3.386562489833418177e-02,-2.079940905762125980e-02,1.527467520140629760e-02
3.682913981249764934e-02,-2.011687952341175908e-02,-6.636896552555561837e-03
2.352344814838239553e-03,4.649742789345200772e-02,3.704721138702525562e-02
4.383486583423711058e-03,-9.939988471585283272e-03,-2.830593361142531850e-02
-9.698973332635571487e-03,3.323401051636593745e-02,-3.481693464407304567e-02
1.515056126628506680e-02,3.880731888897369364e-02,4.964510133656706986e-02
-8.374654567160159588e-03,1.373035054673360164e-02,-3.460919647086751171e-03
1.082391515579088012e-02,7.096146011044020263e-02,2.504690533779624362e-02
-2.392742881175272465e-02,-4.080408027178384495e-02,2.139862998213453923e-03
6.547387079386250697e-02,6.813742881216176828e-02,-2.268691947936520015e-02
-2.611325199822501705e-03,3.782083599271449190e-03,-5.190891352375756607e-02
-1.346232391842051151e-02,3.496770558766722908e-02,-6.617710019853205450e-02
4.893532960961400474e-02,-1.507465982416548826e-02,-4.732648011452230546e-02
2.539228623676659941e-02,-6.506979661891591771e-02,4.010023680782606216e-03
-4.947376942910277492e-04,-3.516499975881566282e-03,-4.262494618779661543e-02
1.402904331187424317e-02,-1.985463617903186762e-03,-2.658676331985939875e-02
-4.488229371082393809e-03,-2.385970657307356566e-02,-1.291204282284912422e-02
-3.999095123980565131e-02,3.519578627121378034e-02,-7.352475881179494632e-02
3.028082780514786132e-02,2.209906101310610271e-02,5.401286300127751579e-03
-3.869065189039964242e-02,3.001414055786430501e-02,-5.068714143931568605e-02
3.398875249737617898e-02,-1.663108568291161993e-02,-9.071465498985026299e-02
-3.076438737199656617e-02,-9.861474000107785590e-03,9.440681139747565329e-03
1.171350549961585989e-02,5.852669848286089216e-02,7.029521787993305015e-02
-2.329273043814094821e-02,8.657043693071285462e-02,-1.390101693073877639e-02
2.007286070676336364e-03,-2.085388390899730812e-02,-3.409432612598910922e-02
-8.481849870014142312e-02,8.106828630981254002e-02,8.173084831551262475e-02
8.732867292198690651e-03,2.248931880131542493e-02,9.549337398126517273e-02
2.321627674243669989e-02,-3.292046880029663586e-02,2.597380585099945318e-03
-1.617899255605112843e-02,-3.788660373791138958e-02,6.272753707354275510e-02
4.889879981162733452e-02,3.131423797753253579e-02,-4.304865762043515870e-02
6.090249879567104230e-02,-4.678620655401651701e-02,-2.193377733630027041e-02
3.542505999374605252e-02,2.331458142054222693e-02,2.730279011517317694e-02
2.594239034919757977e-02,2.960660367431217424e-02,-7.933355356626821397e-02
4.356228941703529228e-02,-2.578529402267145873e-02,-6.477969776003876697e-03
-1.387565058696944333e-02,-4.684259802217623572e-03,-5.184443133668562714e-03
1.084270867464484298e-02,8.500448363931804863e-02,3.980559843332057840e-02
2.175366986577413706e-03,-1.647025664526526392e-02,-1.556116490747915838e-02
-2.861216651585083565e-02,6.710992038425576955e-02,-1.076225768659812461e-02
-2.459285341437042818e-02,2.621617161867161733e-02,4.763696577400974158e-02
1.782121561454829903e-02,3.030597201821473921e-02,-1.030655685843870177e-02
-4.380075354482242111e-02,-3.950545061157841042e-02,-1.088425609775509929e-02
-9.557576391321445652e-02,9.475614879863919829e-03,-2.995059925303588527e-02
5.714847505606351213e-02,-7.420870450663269446e-02,-3.714821440038346134e-02
-1.335948370830670334e-02,-8.618544653855907123e-02,3.076312013484324218e-02
3.224478012657316407e-03,8.367558383204782776e-03,-6.408674894226344676e-02
7.284222127399426865e-03,5.113967790975720157e-02,3.798466976865642886e-02
2.352834860961338509e-03,-1.214506011345541439e-02,-4.665836220113801086e-02
8.266140324580803500e-02,3.417609426231422998e-02,-4.671556506764232980e-02
-3.633704954496905920e-02,4.933443169132371159e-02,-2.555188281210868037e-02
2.086610599827397328e-02,-5.705243831859028308e-02,8.721351436214666185e-04
-3.377259378326278455e-02,9.674569729241702665e-02,7.507638069216247823e-02
5.143944726110909194e-02,1.736216952113536728e-03,-3.098096337227227923e-02
-1.940082658992901138e-02,1.523365664192868896e-02,5.969143301920620120e-02
-4.299861293390409844e-02,3.438916691908044942e-02,-3.958244562108011698e-03
6.805190802924415694e-02,-3.656946553449932219e-02,-5.768900097397748269e-03
-3.073403784157846021e-03,-5.273788163899244957e-02,-7.008879395604189141e-04
-3.131797032942006120e-02,9.331474338515062528e-03,-2.814498562942869056e-02
1.449462066693180812e-02,5.032975763472240932e-02,9.941714353927429138e-02
-6.423333743833663538e-04,-5.533610246874872546e-02,-4.121116413609585832e-02
1.196228212354663936e-02,-6.206187970185457307e-03,6.872620317753999619e-03
3.650376018941084259e-03,-2.345808486524447387e-02,-1.613628015383999177e-03
2.240369472144683113e-02,1.412880607215398140e-02,-5.286700067602100039e-02
2.755990030361953405e-02,2.685192001254203646e-03,6.805579160730752461e-03
1.814074274641334569e-02,8.129745864731963145e-02,7.775680271996317922e-03
2.432413186188988816e-02,6.431542004647442315e-03,-6.994365262260457058e-04
4.138885351521334743e-02,-6.580004465825547988e-02,-1.810849887981962059e-02
-4.190012251402978893e-02,-4.120741217789668925e-02,-1.854914031515587577e-02
2.322915773665297501e-02,7.742794900382618528e-02,-4.968480925827083172e-02
-1.934090097462666177e-02,1.030711550298298550e-02,-4.652763638919538841e-02
1.576143109671461137e-02,6.096388366512960760e-02,-1.403031450780192410e-02
-8.294414669949571467e-03,4.755959640652860504e-02,2.281469261447100980e-02
2.381032519262835795e-03,-1.781011334699601767e-02,2.272236246098665105e-02
6.053796438622808390e-03,1.664055784960487977e-02,7.902450555577346381e-03
3.707749077837713819e-02,5.013576596664436058e-02,5.146265132169663276e-02
-4.927551682363797911e-03,-2.585578495953227626e-02,-1.528753136899133405e-02
5.230677772360057404e-02,4.799979310441438406e-03,-2.158475450647461338e-02
-9.813447968618910222e-03,-4.653401275330321107e-02,-3.782769245139611103e-02
5.560345744335359885e-02,-1.196744368262766048e-02,-2.537144322679464603e-03
-3.824624416669454574e-03,3.759972792517934925e-02,-1.931029837178978997e-02
2.520405484368009805e-02,1.445397611648892994e-02,2.631876701232006843e-02
2.289129406372672135e-02,1.086911401067295127e-02,7.284654793937155037e-02
9.148478120977990291e-02,-3.380602131630266322e-02,1.385656955080510726e-02
3.011425178648290471e-02,-3.994490436645636161e-03,3.974579506350660318e-02
-5.189592487973203327e-03,2.290085135327000337e-02,-2.822595638588918515e-02
6.970276889535508696e-03,-1.308179957454647709e-03,-1.075910360774202630e-03
2.747954009589857402e-02,1.143699110936209802e-02,2.269330481250501214e-03
-1.544277921899741279e-01,-2.381121003531279715e-02,-1.515084058578048884e-02
-3.364209244383303821e-02,4.272885243351405571e-03,2.610424611802182951e-02
7.080414925115528606e-03,-4.377383845437567709e-04,7.721387408491177384e-02
-5.652830693157935571e-02,-2.723327570690919908e-02,1.841392440209286413e-03
2.804831090611929062e-02,-3.978511636527348044e-02,-2.614316618913983467e-02
-1.048309031823937976e-02,1.216740613357760424e-03,6.921453487167850138e-02
4.661809675844331285e-02,-7.712629507820685515e-02,-5.248619298897449353e-02
2.415502559049350143e-02,3.114308377661921881e-02,-1.866826007861750389e-02
1.353414978944209555e-02,2.513091388823587846e-02,-4.005483301453018063e-02
-2.535472788295933116e-02,1.234193029841622845e-02,-3.200174525331671901e-03
4.947016918182823436e-02,2.663724262330792805e-02,2.195734685208779440e-03
-4.201137262530461880e-02,-8.024669856298348100e-03,1.399510584466316133e-02
3.544217551963599333e-02,-1.749703301032954836e-02,4.793576845539197773e-02
1.231220833157056598e-02,2.060422383470363397e-02,-1.170809439677972068e-02
1.190283524951510005e-02,4.587798984889452508e-02,-1.001178274313621469e-01
-1.841856823227960155e-02,-1.001362664805941285e-02,-2.188686818601062040e-02
6.837138197851719279e-02,2.655652060855163976e-02,3.373669303739167818e-02
2.662672072133396087e-02,-2.136149783085955489e-02,5.721987573455924667e-03
6.307983049410263721e-02,5.229083308320943424e-02,-3.467109056063322897e-02
-2.285208397898928767e-02,-4.095085757075728888e-02,5.299635069009821231e-02
3.414523209177477286e-02,7.846716164737890103e-03,-9.555533099865317140e-03
3.602725943853438140e-02,2.646207270332764580e-02,-7.035746983729751491e-02
-1.720220014064761460e-03,2.697581843399838447e-02,-2.594592437477570568e-02
-4.577563476081905613e-02,-7.509886112616218079e-02,-4.370438927845380489e-02
1.089176786699239292e-02,1.050031882935746341e-01,-3.023380028209709039e-02
-2.759661019665370953e-03,-2.838520110313942201e-03,-2.699794894037764459e-02
2.507372891786766381e-02,-1.045650434888080460e-02,-4.509253214899956730e-02
6.152512714339913175e-02,5.409651386757170777e-02,8.897815728198672780e-02
8.176007444269215059e-04,-3.047523418778247742e-02,2.903663058566613789e-02
9.882736878486800269e-03,-7.610309102086629078e-03,2.228201634251194413e-02
6.343377372594309616e-02,3.060989458682978129e-02,3.722192351827750129e-02
1.464019179715580696e-02,-5.786484895065714847e-03,-1.266243719490501261e-02
2.626880431882870973e-02,1.364654654394936890e-02,2.684591513537548310e-02
-3.483074686853009083e-02,-1.068356639608582757e-02,-1.043878557538219579e-02
-2.416321612716512430e-03,-2.127474249308757004e-02,-3.322872779478427269e-02
-2.717499887953661944e-02,1.482145604799702324e-02,-3.677071538651566218e-02
4.281110699771736861e-02,-4.515248412540268791e-02,8.167743634308992362e-03
-2.558532267084176817e-02,-3.371949317793986045e-02,-4.760470305314214862e-02
-2.854063550702463578e-02,5.521207111377750970e-02,1.069950511550505842e-02
1.663863294636804685e-02,-3.205289069707867311e-02,6.783040077997480599e-02
6.253735695030300523e-02,-6.661323970397096950e-02,-3.895514540644105100e-02
-2.892712871749633652e-02,-5.763956188899954647e-02,-6.259017713042813735e-02
4.828545731852633416e-02,-4.124237622082045640e-02,-2.875507206248303915e-02
7.479472008812461381e-02,-8.808450113553911720e-03,1.418001718917105865e-02
6.514167474874497932e-02,-2.308778907719132543e-03,7.583935975486261194e-02
-3.900848071576634712e-02,2.219217721415029168e-02,-3.315635729347826688e-02
8.381804391960366585e-03,-8.892595658391655097e-03,4.168048194550839219e-02
3.134526276195089695e-02,4.648120374357727486e-02,3.635724715392474327e-02
-4.150304168636108348e-02,-3.683554423938031896e-02,4.151382913703694638e-02
-8.997085671343479224e-03,8.849631483304019886e-02,1.299031412135774437e-02
-6.732002507770494526e-02,-3.692128456617869287e-02,-2.814783755370774826e-02
2.512561275429425756e-03,-4.142969386196923565e-02,2.152384901022206740e-02
7.398408982227025477e-02,-1.619775190781701582e-02,3.705382561173321582e-04
2.716228469612001067e-02,-5.849005660434864785e-03,-3.766563686854090820e-02
7.779876240635343922e-03,-2.593300540519080308e-02,-6.262619623492354792e-02
-4.416929651233694049e-02,1.869744324729933141e-02,2.749964605133402989e-02
1.967528418622680950e-02,2.407242721310139111e-02,5.100473477149997104e-02
1.906659217232712852e-02,6.767221224257115308e-02,3.795726788141735863e-02
-3.973083535404893507e-02,2.972920346958065480e-02,-5.437231743797014960e-02
-4.843466083645691506e-02,3.098228362292779897e-02,-7.197008886295199956e-03
-2.475937652791472543e-02,-9.992939813377382102e-03,6.966137168115954167e-03
-2.341645176711672910e-03,1.057486427467611012e-01,2.901369620927300719e-02
2.388686463947759658e-03,-9.760791949365431319e-03,-4.724993292146863200e-02
-1.005200587994693057e-02,-2.682215842992768592e-02,-4.456267622080555338e-03
2.083279915989953539e-03,-3.934062496241638729e-02,-7.970882283233475182e-03
9.071639841774926938e-03,-8.507250828346464566e-02,-1.467239397007783462e-02
1.821264155384329925e-02,7.508602020054057878e-04,-1.073626503716506968e-02
-5.566674403411923239e-02,-1.739206593550573360e-02,-5.226999048302061190e-02
-2.726430794165849575e-02,1.464801151338140060e-02,-1.035022764492382064e-01
-3.510173841582191895e-02,4.141143724192512809e-02,-6.525703444244800033e-02
-3.460838543568590248e-02,-2.746351339513136529e-03,5.785753479524754356e-02
1.330963835608545837e-02,7.949291566865480593e-03,-5.766354178496976846e-02
-4.563853329300612133e-02,-5.052657435008152224e-03,1.026909398546022381e-02
4.733443208996762630e-02,-5.168131777800739901e-02,2.711143027314728143e-02
-5.775179484609113678e-02,4.161240596291042315e-02,2.849362204711733751e-02
-1.014996568192498214e-02,-1.797703151788382012e-02,7.640391877752245042e-02
-9.381021893671773540e-03,5.072839682357054708e-02,-6.367837879416448840e-03
-4.256968158076286646e-02,9.567564655856769518e-02,-2.618179553801981349e-02
-2.890964020563484976e-02,2.951766467593330487e-02,-7.506615894213196361e-02
-3.007934358612424086e-02,1.816309227253348757e-02,-4.965772740940065100e-02
-2.496868491736790874e-02,2.340698244370399000e-02,-2.620784066734085233e-02
-5.912979302645578888e-02,-3.300122952402600313e-03,4.102066202134146966e-02
-3.706542418720314841e-02,1.123380858201790920e-02,3.333650884185820201e-02
2.434306125722010723e-03,1.580976274540237978e-03,1.922820511797449297e-02
8.654064073688315373e-02,-1.016974681588522916e-01,-8.565670101852482232e-02
5.397571010597324026e-02,2.913890058484408518e-02,-8.201942735733218359e-02
-8.493230536662293648e-03,-4.105511653453373239e-02,5.165683877828767916e-03
5.054950155346935731e-02,6.987618416183395686e-02,-7.350115687667949441e-03
8.075736556788347398e-02,-5.471832410909008293e-02,6.025176365266146465e-03
2.474530714046854762e-02,1.875741812139015280e-02,-1.647567223880419367e-03
3.166460038806832855e-02,3.783254854894885916e-02,-1.323081661394568710e-02
-4.480564116766279185e-03,3.242382428884799800e-02,-8.540188371675180856e-03
2.123082605578936050e-02,-2.810835129811892208e-02,-5.274209229139215083e-02
1.007039335748298875e-01,-2.989748432363020098e-02,-1.551345494762433608e-02
-1.135957851697061011e-01,-1.471887987220392435e-02,-7.419510679571409383e-03
-1.138483743821135617e-02,4.656251859974201712e-02,5.157270832666341343e-02
7.594984697969977758e-03,-1.670590453165121669e-02,-5.550527048890928350e-02
3.211610425660715862e-02,-7.309512557570672919e-02,8.317500697168024940e-03
-1.978692532428651119e-02,2.982238047211099516e-02,-4.241590552639632784e-03
-2.701859020858286917e-03,-3.808034601065617142e-02,2.933413439560035932e-02
9.072327522855229420e-03,1.301945038979815741e-02,6.801244750830146013e-03
-7.307386134337570671e-02,-2.216289499396446525e-02,-4.616736742584503367e-02
-6.678605155124166769e-03,-1.772636432581043212e-03,-4.985196181158686735e-02
-9.265111731184318133e-02,3.330540288496126877e-02,-2.069898312015564998e-03
5.200986067687650427e-02,6.119203013908309369e-02,-8.733605606885959383e-02
-5.248578173655034373e-02,1.631763971254805712e-02,-5.851886898575788670e-02
4.074299842440562598e-03,-8.046065224325337634e-03,-2.142498212559270851e-02
1.810752696374168507e-03,-1.160896658456141671e-02,1.821631804871001389e-02
-6.495752991855846536e-02,2.580552442481820127e-02,-5.212384228994877688e-02
1.587454883394814539e-02,2.981727672127788310e-03,1.782467875893477965e-02
-4.312771902711835109e-02,3.033037633667197419e-02,4.675140184407184513e-02
3.632765190440950115e-02,3.417001007861227707e-02,1.200734555774917757e-02
5.213080550046862022e-02,4.132809665927285325e-02,4.875081307234014477e-02
7.268041186297914680e-02,5.232832028025215243e-02,1.304182448876126631e-02
2.031173746603781582e-02,1.002446799974581887e-01,-2.246302770672960279e-03
-3.557613191751867604e-02,1.810996878590459547e-02,1.540308530956670426e-02
5.429834038331035964e-03,4.167268395253513613e-02,-6.206525877167609444e-03
-7.085410856722448858e-02,-2.327124112047349383e-02,-1.855961699657734248e-02
2.664949441105879044e-03,5.021745827052034872e-02,3.573970598918091435e-02
6.221638784174499115e-02,5.601168572444735830e-03,6.585422840495368246e-02
3.639355176558650446e-03,-2.148084230120999791e-02,7.440589356484353378e-02
-2.552229117114677981e-02,-3.563845724456586594e-02,-8.282891971840100620e-02
-4.575618453320470791e-02,-3.389760625750992684e-02,-1.087090145972737648e-02
7.555031097067883838e-02,6.472961134555094663e-03,8.853497864311558191e-03
1.109293363125293530e-01,1.238137614055295245e-02,-3.453644955251921472e-02
5.210006644383804314e-02,6.231911837173071539e-02,-3.671277285313281902e-02
5.381122622257989395e-03,2.136910194545790613e-03,-1.248617977844061191e-03
1.491098631507875756e-02,-2.754837165653559530e-02,-3.277234770295853888e-02
-2.474359946710843680e-02,-2.949752463973894304e-02,-1.584164793925283907e-02
-3.645342908843301338e-02,-3.407997906946731020e-02,-1.629535443662151473e-02
-7.970223998851938899e-03,-8.598173774821352144e-02,-3.576982074030680969e-02
1.465099467064061300e-02,2.854947688831249025e-02,-3.754988721478521793e-03
3.544997199687006939e-02,-6.107504128050922354e-02,-4.481607048745698402e-02
-1.192892060761600696e-02,1.012075161216484040e-02,-4.238774204949311702e-02
-3.108160093197068208e-02,2.467841687776537590e-02,-4.963019224581836919e-02
8.686158643112955324e-02,6.666170721751473599e-03,1.053561146387397250e-02
2.858524907501833103e-03,-3.783425364430671040e-02,-3.121750856873732084e-03
-6.201469235278967568e-02,-8.386429521648146312e-02,-1.707058589981552341e-02
4.476272612096456049e-02,-2.039531800464232034e-02,2.011947917596297944e-02
-7.116324793644925040e-02,-6.344198002482834275e-02,1.254854044716577008e-02
1.292411730885248931e-02,2.997857652438316953e-03,5.639242759415365874e-02
-2.532372523246640555e-02,-6.756801799758438941e-03,-3.545671608860020280e-02
1.530122385857241203e-02,-4.131621906997983568e-02,-1.346126181341603112e-02
-5.951107664740986486e-02,4.374757215580854508e-02,2.587216018294306863e-02
3.307723833518862872e-02,1.393580972917633429e-02,-3.580782267870090407e-02
-5.181144330734498149e-02,6.934279561569819950e-02,-2.963031828448852573e-02
-3.824620119254508108e-03,6.080531748957371946e-02,-1.713022925883594949e-02
3.251421531584064439e-02,-1.047737560588826895e-02,5.315019094640620681e-03
3.198830460400817893e-02,3.264666358269272678e-02,-2.705508496229161453e-02
-3.191879926968353015e-02,2.090720145614325537e-02,1.792232171730883186e-02
8.367479125838104409e-03,1.100121753698358497e-02,-2.046828127977207146e-02
-2.014707223382703957e-02,7.514771752090931844e-02,6.197731953787697506e-02
6.109840499681253034e-02,8.821026910129976806e-02,4.817820821872558640e-02
-1.442597200056293383e-02,-4.653469335530810956e-03,6.240183638033324626e-02
-5.363978139518945504e-02,-7.627455711893223189e-02,-3.217360154773235559e-02
1.292443800344609921e-02,5.765472830872218207e-02,3.063015555274715279e-02
6.420143618067597653e-03,6.580483832174117628e-03,-4.358579899164739119e-02
-5.725857179017669607e-02,6.272255460401035543e-02,-4.685298784404864914e-02
-5.323921855591442348e-02,-1.342262010067701329e-02,-4.791947194635414842e-04
-1.128989939799231526e-02,3.245134939326285023e-02,9.697890586442971250e-02
2.509639506381776755e-02,-5.083709216299941991e-02,-2.922159863245526318e-02
5.028544856864778506e-02,2.699247936590929917e-03,5.141437068753084566e-02
4.826610804189909731e-02,7.082253823725383202e-02,-7.036106167303365910e-02
1.702295543196838054e-02,-3.348030987242717194e-02,4.722081210382809979e-02
-2.271125037633294624e-02,-1.642450599026964303e-02,-2.111662856154555845e-02
-4.003859529633004011e-02,1.531970263620322827e-02,-5.941004265575623722e-02
-1.661999209919700108e-04,-2.157094854288170091e-02,9.576658371712257201e-02
4.935349762882530744e-02,-1.634630056499611003e-02,-1.505885161988073338e-02
-5.495563258711932270e-03,-3.589973042965153346e-03,3.934619316415541995e-02
2.597919546699483870e-02,2.394782429117356046e-02,3.345933409400787817e-02
-3.240515957734318997e-02,1.646628827289908087e-02,6.612188032261630266e-02
8.867799271356378854e-02,6.063648215616503773e-02,4.987685586283307354e-02
3.448956416540110981e-02,-6.164667933954526280e-02,-5.112563930204932355e-02
-5.387276440213815271e-02,-3.536285547836308385e-02,-1.454725581996259287e-02
-2.450054765716486171e-02,-3.350232843970834401e-02,1.738989579630996832e-02
-2.672740375589670314e-02,-1.738196767217469255e-02,1.454585625027999402e-02
5.598442421587203864e-03,-7.517101629365063875e-02,3.976745541538051487e-02
-1.065830251556798558e-02,9.577900353853592563e-03,-3.068077885718765042e-03
2.831875982153156043e-02,-1.675333537892027477e-02,4.310094936146148872e-03
-6.294687249194083623e-02,3.418806895216021380e-02,6.499052642689296701e-03
-1.212887470379898219e-02,-1.892977504612435372e-02,5.848119523674365910e-02
-1.742024963307624644e-02,-1.285925335340046792e-02,4.425979187773528001e-02
-8.790271467216972251e-03,7.239117572201742012e-02,-2.766728758849328410e-02
5.560181857180471893e-02,-1.137248700816773789e-02,-3.447558327960896507e-02
-8.873311847833244628e-03,-1.903031556472356556e-02,-3.324322851193065725e-02
-1.597679059888446051e-02,4.083623816376385531e-03,2.968633187198640999e-02
-5.657607591459110248e-03,2.263847860695076403e-02,-4.228550992492002142e-02
2.331354355406272446e-03,-4.060334849433588911e-02,1.624906829670338254e-02
2.547123452542429298e-04,-4.427730395942205965e-02,-1.821170095113457468e-02
-3.968666493110136612e-02,-5.484635211024812412e-02,1.224881372706641651e-02
1.501303015224490257e-02,-3.368512334549406823e-02,-3.078820911913849896e-03
4.457437089729703733e-02,-2.608492136806392706e-02,-3.707114187520606230e-02
-1.972493867836030632e-02,6.459119581496386431e-02,-6.020373434937996079e-03
-8.664648158925848664e-02,-6.213936574816368574e-02,3.642319032199270445e-02
5.462342178908495896e-03,3.377288768112037681e-02,-2.600293013496098385e-02
-1.340223490156452167e-02,1.021659190845648811e-03,5.408125188213632611e-02
3.446772574985623727e-02,-6.273768850046304926e-03,1.583764845473118257e-02
-6.295510417351236074e-04,-4.850087152477684793e-02,-3.710188515938899617e-02
-1.853926074736625754e-02,3.041580370506687461e-02,-1.072603732107094317e-02
7.905111060434105719e-02,1.755471501820535934e-02,4.374346465968417114e-02
-6.223905738391889708e-02,-2.506127171977151277e-02,1.100740294179870619e-02
-2.339738190854628516e-02,6.762744430251085848e-03,-1.080393745184641402e-02
-2.843067176137126922e-02,1.344264022149521502e-02,4.264251423140052316e-02
-1.229573746941775569e-02,-2.997774317413875317e-02,-2.422902451270228172e-02
3.118219543045297470e-02,-2.291503033499378561e-02,-3.712212545993177210e-02
4.037787969533211674e-02,2.461644634579379654e-02,1.687159369825520783e-02
4.565669610835058206e-02,1.265057114033885620e-02,7.047434404639358468e-03
2.059810027873127530e-02,-1.855362887313522641e-02,-7.625602414375698412e-02
-6.760084936317112270e-02,6.615191054642535588e-03,9.530377364025091613e-02
-8.944472371049312642e-02,6.001469109185091771e-02,-2.112407250283332080e-02
8.626170057292781301e-02,-2.905997481264526588e-02,-3.819970140929604407e-02
-1.743792492628290849e-02,-2.286288304830949580e-02,-4.691477396706152624e-03
-6.963297956609254546e-02,-4.629943970673681269e-02,-1.726060678848502505e-02
5.918189317788048742e-02,-3.935051272605059186e-02,3.158218026112050852e-02
-6.945297579231357599e-02,2.967246029348259706e-02,5.103218665737587617e-02
-7.163218637373461317e-02,-4.575145016950640103e-02,5.187450420011567587e-02
-1.307923942129866728e-02,4.984782628010157868e-02,5.891952517692605057e-02
1.442211496197083609e-02,5.938446282885245786e-02,-4.690855874090742346e-03
-1.450189637165182240e-02,-2.596440664654060121e-02,1.272305812928023125e-02
5.051080945499240166e-02,-7.089465040375737999e-03,-3.815919092774132382e-02
-4.098830572163949387e-02,3.067725414468751646e-02,-5.574156577268692299e-03
5.913505016992625513e-03,7.300663778523734659e-02,4.135784205949927933e-02
2.071471937739424382e-02,2.432118073653636442e-02,3.251691619000371403e-02
1.114661070801113534e-02,-1.441082871598981137e-02,-5.999464512350695389e-02
6.925795539068724249e-02,3.453048803584039123e-02,-2.692461779044522108e-02
-5.924709992601191744e-02,2.576024632684850713e-02,4.386448425792936756e-03
4.496114153547600689e-02,-5.071753955676721465e-02,4.635186301095751277e-02
-2.901942714999648266e-03,-2.039195779022047114e-02,4.499281372217663055e-02
7.188702625339228602e-02,3.349534839620808835e-02,-3.864536692317468297e-02
2.188487823140382663e-02,-1.064173337715926260e-02,1.420043286787495314e-02
-4.542399137480410826e-02,5.653121475340296825e-02,1.329500411260915449e-01
-3.310855863639707714e-02,-3.173780933067296001e-02,3.910121872290660272e-02
3.836146212421202156e-02,-2.735437966055487974e-02,-1.484578116502942996e-02
-4.717622080679995111e-02,9.559247935151965470e-02,-3.320549781872183387e-02
-1.269233823705370572e-02,-1.545342129438897344e-02,3.234721230739031478e-02
7.314086108777322071e-02,2.399129137977175710e-02,-3.008330697339650986e-02
8.477834307444243045e-02,7.814957992600814890e-03,-2.353434690054915721e-02
-3.008766589854968906e-02,-2.131081457292993697e-02,-2.462165619634333960e-02
1.795757284644330584e-02,1.607915665298331742e-02,-3.516980208969664595e-02
2.448637690272470468e-02,-4.591151333570823306e-02,-5.061389886512142333e-02
5.191279518737668131e-02,3.052497888764589551e-02,5.469351054946020030e-02
-9.797914391889204697e-03,3.692322844731774079e-02,-7.308689750078913028e-02
2.041569023405406108e-03,2.259832757062197120e-02,9.226512476911547661e-03
2.290088127442888380e-02,2.151149059524972394e-03,1.327756517539832593e-02
-1.525238135645497900e-02,-5.279568372357379413e-02,-1.230151341316974012e-01
6.754186963724682913e-02,3.897360671129805696e-03,-7.199507163865325778e-03
-3.167699080569908593e-02,3.881800128204417055e-02,-1.219796273351206155e-02
2.927938307920847222e-02,1.967343568989789529e-02,-5.408253508999587289e-02
3.963949946225085036e-02,-5.328784064889265093e-02,-9.863310691390290638e-03
3.955714226533128125e-03,-2.153360480389588522e-02,2.085988694269454505e-02
8.685863952078683517e-03,-3.637499253463223614e-02,1.646453685875432990e-02
-2.054137798054574485e-02,7.277584033722351436e-03,3.040801190916685506e-02
-3.489313251813146166e-02,-3.843833297875810101e-02,2.232267104465348803e-02
5.120667650611675920e-02,-7.479090462755542956e-03,-9.013255900423587652e-02
-3.219179745279413668e-02,-6.775169791316600076e-03,-2.009952701369815964e-02
-1.250809950094967232e-02,1.750201993803988595e-02,4.066178762612489284e-02
3.099216179861699963e-02,-1.101539952475028700e-01,-3.855429652083006576e-04
3.264548910188707492e-02,-5.630373810005687846e-02,-4.613924485341459186e-02
-3.442148992369836735e-02,-1.125261676828987062e-01,-8.852672981598279367e-02
1.848300973157295315e-02,-7.798095386339481960e-02,-1.919275833457240957e-03
-1.902358169130336646e-02,2.122417992940343889e-02,2.762760726478929313e-02
-3.700796889524619188e-02,-1.927718366175690604e-02,1.198026948803015447e-02
-4.150295140278934675e-02,-8.479191004162429587e-03,2.527348920008510094e-02
1.266750567173513184e-02,-2.184817805711589817e-02,-1.758598835326490376e-02
6.901496704085409439e-02,-4.868662664920399286e-03,6.119490878822043955e-02
1.334687930550230387e-03,-3.156052857707779963e-02,4.489360714961524584e-02
1.402469179755488557e-02,2.238915695873768333e-02,-6.635477298998612716e-02
-3.449145579870703526e-02,6.281996905541287202e-02,-4.395167705963774069e-02
-2.913782481511686950e-02,6.844336328793894364e-02,2.922383323880883670e-03
3.245632354027811611e-02,-3.318393803808670876e-03,-8.573490046469300213e-03
-4.371195711548633844e-03,-8.567569824937276701e-02,-8.347403606545157617e-02
-1.271793368393389287e-02,-1.034539511203507248e-02,3.025211301155328672e-02
4.666919743568772455e-02,7.391652880818073285e-03,-6.647279675544080779e-02
9.012251677226437718e-02,-1.922012009868017193e-02,-2.507250305151942707e-02
-8.270318801079644400e-02,4.630542676327459306e-02,-4.852875514828659115e-02
2.718447688835231441e-02,-2.184048991037590426e-02,-3.735712181492573808e-02
-4.526261359344286445e-02,-2.707595350012546517e-02,6.970642759380007991e-02
1.097401614242691885e-02,-2.533733386597405296e-02,1.579379585959557811e-02
6.318892240607433541e-02,-3.951111888999296606e-02,2.842736740722416264e-02
1.050016689405680256e-02,4.656770391389369879e-02,1.844223452580460304e-02
2.792299022470474956e-02,5.077155664898468784e-02,-1.066295305897803219e-01
-2.621343242326774556e-02,-8.380300253696886664e-03,4.519526300500706362e-02
-3.381223210808362994e-02,1.939864128264496418e-02,9.910691965893628219e-03
7.727781938040623015e-03,-3.101397647146527520e-02,-1.176667786972747203e-02
-1.445094336746672106e-02,5.824141630968399097e-02,-4.084541910482687721e-02
-9.218402613872854132e-03,-7.265783636016480418e-03,4.603814930321549481e-02
3.178062554585991267e-02,6.946850145165728296e-02,7.451461104586259987e-02
-1.319618793703786772e-03,-6.740178832064104564e-02,5.681427014893100820e-03
-7.220116350991265253e-02,1.075592558825835127e-01,-4.802436030175598336e-02
-3.779924461256437690e-02,2.018104762409504184e-03,-8.840093229132904573e-02
-1.672579155129558497e-03,-6.041643674185426943e-02,-8.005502702401318116e-02
4.560636773821317644e-03,-3.993496901457051391e-03,-6.872666633519235180e-02
3.639708246697284655e-02,-6.224733557215113983e-03,5.401198866040492902e-02
5.709535271911382256e-03,6.913245973878853756e-02,2.851481020036836581e-02
-3.242834902529932034e-02,4.886787426002241197e-02,-1.070238730938933604e-02
8.010322164245607668e-02,-1.503353529343511713e-02,-4.359774371264018948e-03
2.370687199508006437e-02,-3.801861964422922208e-02,-1.053165258205161249e-02
-4.627718870820575654e-03,5.848112109779226436e-03,-2.055861135351007979e-02
3.953029798901797759e-02,4.308524670588957661e-02,2.914269337237812042e-03
3.782017800028384530e-02,1.599274951758000024e-02,-5.947009712997573111e-02
-8.203470285327184308e-02,1.052364912814894495e-03,3.909228670232152425e-02
1.521990196373218876e-02,-7.334569988546078313e-03,-1.151571420930330887e-02
6.087389420951673513e-02,6.766249719178840660e-02,2.891862169046201768e-03
3.958694918843639471e-02,4.783940733293785136e-02,-1.769322762697077625e-02
-8.289406528345498459e-02,-4.087422416802787006e-02,-3.133334872924820047e-02
-6.830104673675972682e-02,4.827464665331095833e-02,-4.043639421553819197e-02
6.671023767208986155e-02,6.208827300157777895e-02,-4.334185298178729051e-02
-8.745010545265148594e-02,1.701490492707974367e-02,-2.326698141360939581e-02
-3.054257506181173171e-02,1.812269305264055039e-02,-3.092506796000033670e-02
4.425280169496279697e-02,-7.912624900133911898e-03,-7.382038566374643507e-02
-3.314646362286589182e-02,4.203831027042442825e-02,4.072062622543923195e-04
-2.084088669687817613e-02,1.491708471036942707e-02,2.211861924889129555e-02
1.205803983925460114e-02,2.569716628591181898e-02,1.810227750225346793e-02
-2.056312947674517402e-02,-4.345550523292885693e-03,6.021992546535148011e-02
2.085116493480724392e-02,-4.797712329878277282e-02,-5.058836825937017972e-02
-4.168524734331447573e-02,8.268274181616177762e-03,-3.011930074191704679e-02
4.387279779299687460e-02,-3.893750572104832941e-02,1.434934980401403413e-03
3.408150884355178045e-02,-2.377333743727520765e-02,4.606777526035958636e-02
-1.598605506030313997e-02,1.758784405549831606e-02,4.799919510360960151e-02
5.231232171480718063e-02,-5.847026873141379470e-03,-6.369314240461443127e-04
-1.423092222846389192e-02,6.283452883859637350e-02,-5.356373567287078807e-02
6.868381939775477715e-03,-5.474607735618002013e-02,-1.535087748193798493e-02
-4.547873671164173043e-02,-2.739137718966405503e-03,-1.352951223196325048e-01
2.108935523587809543e-02,-6.306388882468261237e-02,6.756089680113605556e-02
-1.002124810250672529e-02,-7.679906065043562435e-02,-4.155744742151559062e-02
-3.618260550781641355e-02,1.322044863582286754e-02,7.100010815340329628e-02
8.437502225814800388e-03,3.486347893282568024e-03,2.143221611208237162e-02
2.957512419474103010e-02,2.720217244453464883e-02,8.116335872271780716e-02
1.886983368757607846e-03,2.779053154534978295e-02,-3.406936929470529007e-02
-7.944961535350502160e-03,-1.079526307596375898e-02,-9.474358748221254484e-03
-4.931209645745761316e-02,3.858038842576646740e-03,-7.744808578656423026e-02
1.195474122430421459e-03,-8.193820766509877368e-03,-3.740688569044016160e-03
1.830426270927428684e-02,2.898872534614316265e-02,-2.347580367536173523e-02
5.293288240237011694e-02,-3.053032109313624093e-02,-7.555535316403105047e-04
-7.822761841088390899e-02,3.615658088331989619e-03,1.220300134079800418e-02
5.463600134935903130e-02,-1.649080371733603265e-02,6.690635478818674278e-03
-5.848834923662944024e-02,5.517954525780024988e-02,2.091925656411163306e-02
-2.847409781187937999e-02,-5.811384568852801837e-03,3.147553095968182169e-02
-2.677767214439815899e-02,3.755330662238741402e-02,-4.170943477989617898e-02
-5.384829701585385625e-02,-4.657995209136920473e-02,-1.043652547902157402e-03
4.499940724267337960e-03,1.352908381743700601e-02,-9.911019971330517833e-03
-1.433193731940115082e-02,7.349100464970838645e-03,2.203771017167044464e-03
-7.426495171791799854e-02,4.984434321513459692e-02,-5.209894460354658197e-02
-3.136557921330541954e-02,1.285303710144165661e-02,-3.718476327739836385e-02
3.513800870483240260e-03,-2.650833629861221868e-02,-2.856418852993377125e-02
9.117567155129955789e-03,1.298248490812366554e-02,-3.766326042098073687e-03
-3.686684820856143269e-02,-7.501703881638596694e-02,-7.706279379803900043e-02
-1.404513830394633553e-02,8.275512460141342189e-03,-8.181967653374241922e-02
6.560786141902236190e-02,1.707555450661056573e-02,2.064901591635160891e-02
-2.103019018136132248e-02,-1.861638121373058313e-02,-4.830627614914093093e-02
5.348450753968193166e-02,8.242083125013296985e-02,7.585303228040627017e-03
2.101534249089662826e-02,5.135618168343068085e-02,-2.082584273729755700e-02
-3.700519710556035655e-03,1.844298185709532245e-03,-1.266216332618275500e-02
-5.426679258697702374e-03,1.416046643742722121e-02,2.979689637267254800e-03
1.586069768899214111e-02,2.418273722894877936e-03,-6.948998182020510450e-02
2.892289153770758424e-03,1.151385525815648049e-02,9.474289828610486103e-03
-4.906373856250165200e-02,7.945846755059865485e-02,-3.530132890320866745e-02
1.415107037091798033e-02,-5.737878366041919420e-02,-3.181718535777777745e-02
-7.631750381103937983e-03,3.555111764780901056e-03,3.327522852031684214e-02
-3.605018387403236685e-02,7.829763428137030690e-02,-5.694925558413367617e-03
3.113609570079436950e-02,-2.430037788859959816e-02,-5.065726754999053810e-02
-5.795477372358527612e-02,8.725867015719281777e-03,-3.370035411660279173e-02
4.326362640322119202e-02,1.792291316463729550e-02,-4.423160612182634732e-02
4.469797647513629700e-03,-4.784452234174619428e-02,8.158593550856413010e-03
1.798064560728852151e-02,3.862751310569645380e-02,-4.271789797433962060e-02
-5.221399473100485356e-02,-5.953363053783349013e-02,2.959621986292136631e-02
7.966519104073699342e-03,-5.730040073983617283e-02,-2.659173520288864861e-03
-2.694568583445365248e-02,-1.842915069840438819e-02,8.680444637934771682e-03
-5.080555582966263424e-03,7.859884915083092949e-02,-6.061230377695148858e-02
5.160026556763901845e-02,-3.953522373885282742e-02,7.851925919761235106e-03
-6.101086630711535438e-03,-2.142162376266345397e-02,7.296131277638303811e-03
-7.348803617388609093e-03,1.576182228835180249e-02,7.114110221633330490e-03
3.816803036534337917e-02,-2.810428030476156552e-02,-4.351210536608605267e-02
1.836440880364406322e-02,3.562006686421709950e-02,3.581864092140008698e-02
-5.270286057529706414e-02,1.550681624773138974e-03,-3.076653177152249147e-02
5.029656371869997873e-03,2.854331031920442560e-02,-1.622022455594611390e-02
-3.125182901614419195e-02,-3.961760887052252073e-02,-3.269708773371905741e-02
7.214900017174061438e-03,-1.549431950792948438e-02,-3.407488931179664809e-02
-6.975434998139407039e-02,4.377237613936438287e-02,7.921212785337255688e-03
6.833141533169123649e-02,-1.372447556989867673e-02,-5.391729796416555587e-02
4.746053009916349069e-03,-1.492528627370057898e-02,4.674270051163031958e-02
1.959556006496426112e-02,3.729013243057738985e-02,3.334254227041026641e-02
-9.482170965727683420e-02,8.061045025795363431e-03,1.836378357122873256e-02
1.054202311525528381e-02,4.542379647750057620e-02,-1.111282125330909781e-02
5.457705354789593732e-03,-2.546279989599847457e-02,-7.232662659959071538e-02
-8.254766516464361048e-02,-5.916135471955866199e-02,-1.472419139566736104e-02
6.195314252160462332e-02,1.362819330113844256e-02,-4.611106421627667040e-02
-1.278768218838998716e-01,-1.113572552593120914e-02,-3.625921190513729797e-02
8.598773189970095043e-02,-1.229350561359627593e-02,-3.274146474077119923e-02
5.867489213084678412e-03,-9.682468416725072483e-03,1.026157966794392223e-02
-9.483019714208791584e-03,-6.203341272546563680e-03,-3.453838290067750422e-02
3.522407641630156960e-02,2.434157840097636236e-02,-6.634311389339327646e-03
3.116763420483667849e-02,6.060478491955760202e-03,-3.872465615701931128e-03
-1.437549724929739793e-02,3.295584578589857289e-02,-1.366141594347957539e-02
-2.902190231618907365e-02,3.815149425396822946e-02,8.555032144049406692e-03
1.748782638093497252e-02,6.373349581465186098e-02,-1.589807878074547473e-02
9.571666324604752307e-03,1.549833672227244295e-02,-5.269850528056194833e-02
-1.764769472166247133e-02,6.363245050039462170e-02,2.400585216019630180e-02
-5.994827055440543964e-03,-8.703062236542771779e-02,7.412133416533797647e-02
1.814791876060235440e-02,3.549639291111278579e-03,-2.920991583704475245e-02
-2.694458226868507930e-02,-4.059070338111006593e-02,2.667843959382953760e-03
-2.109123953795646184e-02,-5.869376845587204183e-02,-2.120156096095118792e-02
-7.428080136210036405e-03,9.385275448303920243e-03,-3.930374186862089537e-03
5.536854708521595642e-02,1.156625817772506280e-03,1.786099866617447962e-02
8.418642851735726185e-02,-2.853328575150172047e-02,-3.932258014502465482e-02
-1.122920851022174600e-02,-1.937274134650576393e-02,-2.275571553957646612e-02
-3.767852793720813387e-02,-8.320146857621614489e-02,-5.634742380195034012e-02
-1.819163198197470271e-02,2.269207264771179455e-02,-1.249483347243375737e-02
1.045298035889180403e-02,4.518517901448280971e-02,-9.868808471497013055e-03
3.873133268171576049e-02,-2.233810000767922146e-02,-5.524760260236727394e-02
-2.112843514608622741e-03,-4.587375161199128137e-02,-8.341875044444736764e-02
-2.666860180874522021e-03,4.763481693532556002e-03,-3.810297419893427656e-02
1.019517544041146327e-02,1.678442121865271822e-02,-5.878433739810389608e-02
-5.512319848071019213e-02,2.314416240070732086e-03,-3.727716535779666829e-02
-3.058978162027706574e-02,3.912485873488362464e-02,-4.444568166028001893e-02
-2.493974708034201251e-02,7.259333471998544174e-02,1.452935391352406201e-02
-3.148549554577583648e-02,2.246520609700184551e-02,3.105664517322059143e-02
-2.019993739728348850e-02,-2.375535413754526100e-03,-2.839552965231707110e-02
-1.489178962398221909e-02,-3.326013479821042507e-02,-2.675670852316096651e-02
3.489213415220716180e-02,8.523525862371474082e-02,6.764521791225763803e-02
-1.412534423708972607e-02,-1.236791385010729133e-01,5.243211036753617910e-02
7.386470434980141331e-03,4.092124351455898174e-02,4.258085645844674610e-02
-3.092011103472604508e-02,6.828645876373008738e-02,9.238269302835425134e-02
-7.216625952301354563e-02,1.466888005668836592e-01,-2.603819233503007133e-02
1.121931615694091514e-02,-6.447035069121170858e-02,5.530007852898097265e-02
-8.107309064468970483e-02,-1.034051312127621212e-02,2.183070775119386533e-02
3.809022541252912730e-02,-3.249167146259349104e-02,-1.762482031101385294e-02
1.090270219459439464e-02,-5.119912574068501837e-03,6.921983917579902293e-03
-4.009628881009014156e-02,2.624917753873322671e-02,-1.976913932864984152e-02
-2.544201035131606059e-02,1.122946700309240819e-02,-1.201680098707668190e-02
3.658348447891875826e-02,-3.250712634374498247e-04,-2.524058991242230515e-02
-3.884934826672639674e-02,-2.994009008594607224e-02,-3.132557027952428269e-02
2.345588271551234116e-02,6.475764224482631615e-02,5.988951104887585419e-02
6.987049480410290059e-02,-1.669871327769626226e-02,-3.119667427308036103e-02
3.999523108018506606e-02,2.411295003953341232e-02,-2.229404767732198756e-02
-1.210743003613005096e-02,4.775105860636413846e-02,2.595830714737775574e-02
3.200105707985535092e-02,-5.063358686300419714e-02,-1.508625139979275637e-02
-6.665691680028278110e-03,1.029213736905291721e-01,7.414121297424983159e-02
8.644928218479756843e-02,-7.429302067426661604e-02,-1.159237635261130134e-01
8.126857236395513759e-03,-2.145085815625367293e-02,-3.719457666523856565e-02
-1.027892338508119667e-02,-5.065172683812933785e-02,-2.931873630118138688e-02
-6.637461989999800249e-02,-3.542989696986833387e-02,-1.374045885980619205e-02
3.755992896149947663e-02,1.437683821473561066e-02,8.185335374024143434e-03
1.996828658349268995e-02,-3.324117927650211551e-02,2.180974645519404703e-02
1.823002590530591396e-02,3.395788141918472391e-02,1.462433331946691277e-02
5.283986368562515468e-02,-4.418210709885578291e-02,1.104150215905329996e-02
-1.606152816712948239e-02,-2.018629674027638474e-02,-5.254551893673344021e-02
-1.609535282828326169e-02,-8.697644590299773160e-02,1.256491046110889097e-02
6.943257141097400331e-02,3.416045159264713416e-02,-7.930010321188845843e-03
-3.563391536961247469e-02,2.162207569137374052e-02,-2.062776072449604495e-02
1.009112739611096703e-03,-2.559098791585327076e-02,-2.692572990610047484e-02
-1.982519477900627700e-02,-1.122181287821512677e-02,-1.315520032763883851e-02
-3.266732275267956922e-03,3.033214236408862327e-02,7.387973060761967442e-03
-1.675535082069495212e-03,3.480996812481922109e-02,2.047464256195408866e-02
2.373523380581837872e-02,1.025704960918249475e-01,-7.452892364289429028e-02
6.432792181589427893e-02,-1.129404311574827430e-01,-2.204134175114097136e-02
-5.731097783036819514e-03,1.586835597820283883e-02,3.702322986958268142e-02
-2.317650924605382107e-02,5.640853709543551531e-02,-2.372865077087653318e-02
3.822198755966308564e-02,-1.374280741554809691e-02,-2.532112142800439433e-03
1.700915385199199339e-02,-9.720637176177838665e-03,2.021606294721395650e-02
-2.043037574308846638e-02,2.059714365906017627e-02,1.535445194019941992e-02
-3.314100925663533009e-02,3.651945348994771467e-02,-7.995759129123619635e-03
1.709964500315252350e-02,-1.535244300935223981e-02,7.140172380737985769e-02
1.854991682658165345e-02,6.671377633574718247e-02,2.528688796916273018e-02
-5.837889666777846404e-02,3.159724181570627843e-02,4.096161600752912246e-02
-3.549250262411258322e-02,6.300145125099822219e-02,3.744268335880926446e-02
1.412511257617914996e-02,1.731638178123737909e-02,1.867909251987184133e-02
4.902102414404164998e-02,-6.269346790554895278e-03,-6.791117216909398069e-02
-2.055491641608887463e-02,2.179588130198232068e-02,2.781067932365978435e-02
2.065109237738078571e-02,3.513585434699582205e-02,-5.708895094457396707e-02
-7.025420213708107042e-02,-1.027702476866437526e-03,-7.697660342877356114e-03
-4.704538762744961237e-03,1.184607624975437222e-02,-1.163360197295760928e-01
6.548900665634391216e-02,1.250763999132026641e-02,-5.185831826619545504e-02
1.714435019790349485e-02,-7.853370438414881971e-02,-1.388961270884505337e-03
-4.129799497703595668e-02,6.456535367869933872e-02,-3.263213365575197769e-03
-3.140793729697918119e-02,1.926032982785206432e-02,-6.065073977377900133e-02
2.457592790238383174e-02,-6.471575844369066577e-02,-8.280302012946598456e-03
-3.428336885368216819e-02,-1.580266793441212694e-02,-2.953081788448386202e-02
1.615842607618861448e-02,3.735846275002087380e-02,-4.525172498374743779e-02
5.019210703752803593e-02,8.755164092314013380e-02,-9.488585591687498377e-02
1.717827511283257294e-02,-5.370613882566663191e-04,5.712169251512175250e-02
4.335570643653811201e-02,-1.128745692162026922e-02,-2.340508469764338018e-02
6.058529402757218199e-03,2.961838235947941364e-02,1.067725040081005800e-02
-6.763653836472384093e-03,-2.361197566374039977e-02,-1.332032248072730074e-02
1.392825643189040882e-02,1.064624406947855227e-02,-1.060829147084631913e-01
1.487775780453540024e-02,-1.429544409289280373e-02,-6.933344679376304831e-02
-1.281145992429046955e-02,9.433255725168019148e-03,-7.620367463382338863e-03
4.580033718897189715e-02,4.388221139442032709e-02,-8.096762571630644265e-03
-2.193302088875246497e-02,-6.611722254868031626e-03,-5.915813820007402926e-03
4.925649922228367283e-02,-3.039052899201363962e-03,-1.820813265225866909e-02
-5.281528283704527496e-03,-2.851235478437470078e-02,-1.935406006677037371e-03
4.852614735171534299e-02,-1.424785501969519797e-03,2.145151019198182629e-02
1.030390060108144282e-02,1.013417011186901195e-01,5.597410757943829113e-02
3.210420382110002607e-02,4.256061196282832221e-02,-7.203210176091659478e-02
-2.217986777494149186e-02,4.627697235229694117e-02,-2.802199916401905758e-02
-7.071278749711611133e-02,2.228500109279102706e-02,2.850009690288061656e-02
-3.597327400298255123e-02,-4.270422681390856345e-02,4.935390229790773825e-02
2.261359240110463742e-02,5.973553334591016201e-02,4.484823953658793882e-02
-7.647748392975969867e-02,1.191430100641730893e-03,3.198569512437764162e-02
6.934379211047525526e-02,-2.726112751066887829e-02,1.139104486548176004e-01
-4.045940853407390368e-03,-7.866356785733790227e-03,2.159895431040302974e-02
-8.576383088171638316e-03,1.495364897611063323e-02,5.518554812447590968e-02
7.570805081462704533e-02,-2.059549603609683519e-02,2.795545822897537586e-02
-8.801222308531510274e-02,4.349603498421294318e-02,3.919710203290260181e-02
-1.650853727269364912e-02,5.380112052857301957e-02,-5.330427579877576594e-02
-4.811674276018172020e-02,-1.025772328184925732e-02,6.218018277602551519e-02
7.270639733672705496e-02,2.669149601441344125e-02,2.724118394676496024e-02
4.511288369331086651e-02,3.500868729609009355e-02,1.447701576931832365e-02
-1.048851432182250076e-01,-1.749958742978494422e-02,1.066754469726935266e-02
3.115935125158961899e-02,7.866287326000195174e-03,3.901387259170423227e-02
-8.033361912528352855e-02,6.007917801088961951e-02,7.274071264976803008e-02
-1.521933968455342623e-02,-1.845033404859691348e-02,2.834879570831241175e-02
6.126367568044245593e-02,6.300818622592494617e-03,5.496642485580683669e-03
2.282326312571217059e-03,6.649544582399385950e-02,5.967525265457547523e-02
-4.284337903964145766e-02,2.595064415484813619e-02,1.067396904680957895e-02
-4.349664764872399059e-02,-2.689328900912159662e-02,-3.394301746085371524e-02
3.939427753199627874e-02,-1.643035920412929535e-02,9.532844305103108096e-03
-5.923936147047994399e-02,-2.093301782651373760e-02,-5.428178861920422010e-02
1.506294484974197642e-02,-2.825893576057971618e-02,-2.390058746765474224e-02
3.379599816147683261e-02,-6.742307496577691628e-02,-4.033928181697422205e-02
1.142347875010052416e-02,2.577762202858189730e-02,-4.254426998840798307e-02
-1.867304806894896918e-02,7.256137454679068011e-03,-3.084585451833900954e-02
4.554140146634495095e-02,-4.218370261100326535e-02,1.270179600429318430e-03
3.006508787384904943e-02,-5.733855874083538390e-02,4.914604882015830012e-02
-3.559417659179094171e-04,2.291255837577170235e-03,2.592944295667452825e-02
9.510442190701500625e-03,3.561073751312716223e-02,2.066197232771434245e-02
-4.593849872664643348e-03,1.596946852182918458e-02,5.228343899910054687e-02
-3.440070861149428089e-02,5.201992456221461551e-03,3.554643093752942601e-02
-2.291086566922381079e-02,2.826969522235522198e-02,7.823968104749938479e-02
-3.554538440810683236e-02,-1.589173805183053539e-02,6.156394048568002153e-02
3.556714184218775360e-02,-3.567892953671660677e-02,-6.340433995159740210e-02
-5.628173486531590219e-02,-5.716398669914787845e-03,-1.308316689774233904e-02
2.004992582092485209e-02,-7.391622483154997036e-02,4.783717543248919984e-02
3.534790564867151819e-02,-3.373229264792670240e-02,1.711539082744142903e-02
1.298392939913767252e-02,-7.389415974143056457e-04,1.995790135823781453e-02
-4.930703658046823451e-03,-4.482492510265258245e-02,2.118183083918886989e-02
3.949621100000953733e-02,-1.181574464360374797e-02,2.561653581035138252e-02
3.975360139075345689e-02,-1.172723560633812806e-02,-2.697560534943670499e-02
1.445074213008163896e-02,1.384288310642752852e-02,2.491551547116770127e-02
1.923605356762462734e-02,-8.597658293204403501e-02,2.897331876904655004e-02
4.315121912198658510e-03,7.363995429075305410e-02,-3.630527955578465027e-02
5.403824769560586043e-03,-3.788070098336831365e-02,3.800669856003120045e-02
-2.669042327029535339e-02,-1.473420589281567404e-02,-3.754773528496672258e-02
4.452374733039142496e-02,4.919528934446740220e-02,1.831719682673658631e-02
5.590299891465542320e-02,1.459126647203720997e-02,-5.318613609449109048e-03
5.763369235133656426e-02,5.465995867177805140e-02,-5.725195563584707659e-02
3.833415562113859365e-02,6.508469797927156353e-02,-3.274807581417172458e-02
3.423224886557149193e-03,3.184624741957309269e-02,-7.158064349916160030e-02
8.929872304916436354e-02,-2.277221414778907854e-02,1.560608094540507328e-02
-1.509703261424538354e-02,-1.159352654826428970e-02,1.034886081032879157e-01
-7.280754228024037544e-02,2.214252307205519590e-02,5.601651829580363978e-02
1.756147685468149172e-02,-1.194872172334814596e-02,7.532216137367196696e-02
-4.723569956426132421e-02,5.486200181450714281e-02,2.605544313000728723e-02
-1.133928139183911117e-02,-7.180781127514815343e-02,-3.425068733580085428e-02
-5.166321138687536042e-03,-4.060380076834944202e-02,-1.230770968216822470e-02
-1.093395289806208849e-02,6.756985632480527748e-02,-2.332555065631686242e-02
-4.585210684528237546e-02,1.828542137823101210e-02,-9.256094323265304583e-03
-3.808547210949668471e-02,2.909946477552020211e-02,-5.542882700820868369e-02
-2.952095920291127745e-02,4.529694722388018235e-03,-7.794155279461634223e-02
4.400661645429457540e-04,-2.174647628180685459e-03,-2.611610210681684571e-02
3.531702717237841099e-02,1.271730557521446757e-03,4.844082683278796986e-02
-4.547233604469520102e-02,-8.131041851526774750e-03,6.102250891497076196e-02
-2.486539611801795273e-03,1.051256661993089057e-02,8.248528690775870295e-03
8.878339639520706206e-02,3.215799175682505784e-02,-9.495755915625665386e-03
-7.534833920160856346e-02,-2.062658135991889477e-02,2.504655717819425503e-02
2.341305022055950591e-02,4.852838143817420589e-03,5.981842421854149244e-02
1.673897913920215780e-02,-1.764022914042365567e-02,-2.194514093169400853e-02
4.932843127939991884e-02,6.226258344945641982e-02,-9.005973256174605590e-02
4.665553601967039471e-02,-2.202915073199292195e-02,4.640597889875552884e-02
6.370658803158842781e-03,6.372317547816422345e-02,8.387510417946361652e-02
-3.080439680999871518e-02,6.264436430254480270e-02,-1.958093699092270171e-02
7.335930170751918389e-02,2.057162903672058590e-02,4.936226759382696810e-02
-2.466342533478111526e-02,2.646902643910268443e-03,-5.327015340871783106e-02
-3.039552521552984707e-02,-3.101979415361981809e-02,2.110061717018208924e-02
2.418954728599414725e-02,1.357620354179034199e-02,-2.073439661674081336e-02
5.016608646795589488e-02,-4.016353109588488568e-02,-2.828277755220697659e-02
-6.113093083595854543e-02,3.319263539443835509e-02,4.817391828239096785e-02
-8.136908202817915228e-03,-5.764745346571698015e-02,-1.991457333817493042e-03
6.773683877381263263e-02,2.982330193904438737e-02,1.202222801935611679e-02
-3.956973735538076541e-03,-1.247886357903170255e-02,1.232225103648312836e-02
-6.379746099802505177e-02,-1.167663468308234934e-02,-6.849988306289926665e-02
-1.893341868750169146e-02,6.079664196496363526e-02,-2.298935520568857332e-02
6.563456622033535248e-02,-5.714085859248938665e-02,-4.700157227571755136e-02
-3.580152738008660334e-03,7.488706970169399513e-02,4.816768329198031599e-03
2.129905619775054187e-02,-1.148292328384851145e-02,-1.259315331226778644e-03
-1.559477252578718963e-02,-1.939174157158816969e-02,-1.720191606713784849e-02
1.804114552473478489e-02,7.432796811301643249e-03,-1.282321567445547823e-02
6.746939761120314752e-03,-2.118086927575153766e-02,1.334155897250562323e-03
-2.095729061378297578e-02,-1.721731559169935658e-02,2.491180669554616048e-02
9.339570256989159283e-03,-7.619333771005562528e-02,2.316414117749015546e-03
3.970769365423965774e-02,5.701883771596234773e-02,-6.600945800415410070e-02
5.080683724796589140e-02,-4.214370442661785621e-02,3.598650247739888786e-02
-3.040151864057393308e-02,5.212149166197623494e-03,-2.614249204351551045e-02
6.109275465097113722e-02,-9.617550864916196707e-03,1.218053802938961691e-02
9.043698417986236957e-03,6.741607623285733597e-02,-3.592739381820014150e-02
-6.567990547666463508e-03,5.613164032575598816e-02,-3.928579200052444848e-02
-2.357804694254929737e-02,1.817925240208688453e-02,2.066806165912169271e-02
1.344890981364671445e-02,2.739379831437603954e-02,7.069352260345816708e-02
3.154505693365133867e-02,8.721112970331991454e-02,2.632243756644352811e-02
1.574456903925508522e-02,6.086815602350856280e-02,1.785567764232491236e-02
5.513553539454027486e-02,-3.027974977637991946e-03,-3.370851018029397822e-02
7.858289734985283992e-02,1.466373536545938043e-02,-9.630721973710944239e-02
-2.257576798762572778e-02,-2.565029869167404289e-02,-1.405390426519641765e-02
-6.950881421547661088e-02,-3.265512822434201833e-03,-2.482789482233528286e-02
2.274501035282405076e-02,4.892763756036156569e-02,-1.040430632875099792e-01
9.609585652924556784e-03,-3.382871005242737983e-02,3.765540654437814216e-02
1.371438404431420122e-02,4.636406168740642153e-02,-2.800476058737680352e-02
2.446845594591742432e-02,-2.530296905556230391e-04,-4.327363269586805006e-02
-2.046465143426978023e-02,-4.109108420590580797e-03,1.177773749850391646e-03
5.170139209645226934e-05,7.656253186777944690e-03,-1.162957401054827249e-02
4.666189836229980500e-03,-2.828182243912589697e-02,-1.299837799400810692e-02
-3.726637071621148600e-02,4.698135049569426153e-02,1.784775714459450532e-03
4.360038837238509185e-02,-2.171422525856578009e-02,-6.451327291672108444e-02
-3.784622644970266070e-02,2.390470076872639946e-02,-1.026694674114844302e-01
8.759360438389962242e-03,-3.616780069717062673e-02,-1.900414455375259645e-02
-1.363511081718293480e-02,-1.297042027748683372e-02,7.631085044245752153e-03
5.843774635858479949e-03,-5.689638385199184689e-02,-1.397179847688380383e-02
4.536969289705720249e-02,2.763152948242448073e-02,4.818976615296930582e-02
6.491097766842171546e-02,-8.869466464059021574e-03,-1.500162234017989905e-02
4.688863270080574630e-02,-4.374675114513899843e-03,-3.231292292026659296e-02
-4.716902053910210224e-02,8.253562895671672991e-03,-7.576654922181653984e-02
2.490187536068761906e-02,-2.360312885955500803e-02,4.015326448844092760e-02
-2.372953157771277161e-02,-3.313606178646930078e-02,-8.760633767051627385e-03
-2.566683602859093014e-02,2.013600102268175637e-02,6.426449300042547108e-03
1.318476815587571981e-02,-1.158930090157076799e-02,4.863412980943364328e-02
1.047851918489733393e-02,3.403704448672443400e-03,9.221564264994585106e-04
3.641217289254015249e-02,5.884355740689159453e-02,-6.353518136523474136e-02
8.621775114150708776e-04,3.070370948432398373e-04,1.137130154759346742e-02
6.162488385773536720e-02,-8.468816740958999339e-04,-8.076426975038639502e-03
-6.597748314969788253e-02,3.264075515564076463e-02,-1.749031434240304328e-02
7.476349115167635340e-02,2.074800819946920685e-02,1.602161433295497955e-02
1.187782227474795844e-02,-4.177860441264756586e-02,4.284868453058453958e-02
1.722852345057260086e-03,1.201512652018300181e-02,-3.187616233017891154e-02
4.961014078831545160e-02,-4.700225144900446392e-03,1.156870584010038019e-02
2.478790673652456894e-02,-5.815901776708207573e-04,4.933782837976058433e-02
-5.396156005337167383e-02,2.371584169184983229e-02,6.577471128600989592e-02
-3.566927537830877934e-04,1.677472513038843344e-02,-3.753274894145147700e-02
5.445575673446215181e-02,6.632934746587434288e-03,-1.411524977058980536e-02
3.747909392863994771e-02,3.491112323008154633e-02,6.246291501245301858e-02
-5.102206326013272557e-03,-1.503188955691566256e-02,3.829420345923997826e-02
8.309191104584974508e-02,-5.136445541475471305e-02,1.574289349722409262e-02
-3.644073194636522628e-02,-1.023197727550858530e-03,-1.512090618708811403e-02
3.695422936177587825e-02,3.573615244729316104e-02,-2.178352604656531855e-02
1.707654378373740789e-02,7.222667768147264869e-03,-3.778622434476112957e-02
-7.861272369368767221e-02,-3.342778971538733213e-02,-2.927336337702076807e-03
5.553960494192806963e-02,2.694017714015333950e-02,-6.248219500439146368e-02
6.732184551611985687e-03,2.272600067902466950e-02,-4.813297831738849730e-02
2.113520034023366398e-02,-3.844858058891277575e-02,-1.143275490432378860e-01
-6.167347239946814608e-02,6.278704441779851819e-02,2.204703266528317690e-02
1.873613499728644591e-02,-5.314018416508747844e-02,-2.763148640151300364e-02
-1.094352133354830753e-01,1.905322106686390890e-02,-8.014108790251735226e-02
-4.614999042948830787e-02,-8.032387461875189344e-03,-1.380031077728895161e-02
4.094461055936611527e-02,2.975830073730634934e-02,-1.389756099469413586e-02
-1.814005786275147206e-02,1.112799238260008547e-03,-1.043557569552117092e-01
-2.942005333728661340e-02,2.730883718895382034e-02,3.888069229629495527e-02
4.788084427442447499e-02,-1.031967566095627099e-02,-6.364657227400197237e-02
-1.966682137654596207e-02,-8.150941618762475374e-03,1.649794307639939478e-02
-4.060121318305153632e-02,9.456476208779941717e-02,6.595665261932265322e-02
2.075861892046411417e-02,-4.447192753126873177e-02,4.948789813231941302e-03
2.559661922118401309e-02,5.348971027359437219e-02,-5.662098630291094448e-02
2.485916459220716829e-02,-9.374364754428900909e-03,-3.251823466720212691e-02
6.180095714140725754e-03,2.491303914718463741e-02,2.580145396382170150e-02
-3.424020052354092430e-02,2.219631620818015780e-02,6.632866310619126189e-03
2.751773011969693011e-02,6.382641528391927443e-02,-3.918094753863021057e-02
-2.875855125201023238e-02,3.264861767902525053e-02,-3.743231507792513235e-02
8.356929973810424146e-04,2.171324018837798592e-03,3.001310590167548253e-02
-5.619117228929696589e-02,-4.093977549355379969e-02,-8.252960908899348302e-03
6.585124015621693361e-02,5.742349759653299357e-02,1.171848767922396665e-02
2.851038987055059745e-02,1.147494779360262035e-02,-3.000192158727918446e-02
5.256522415963134180e-03,1.553042565043656099e-02,4.021729695328259829e-02
-3.639111915220995946e-02,-3.732977675134435680e-02,1.789321207583519785e-02
6.045968272894911705e-02,2.291737484748605780e-02,-4.724232953328450120e-03
5.293136270162613483e-02,1.976856397064267329e-02,-3.524451445235994573e-02
1.833371545922057172e-02,-3.713054086392569841e-02,-7.627278096686095250e-03
2.852345534499018190e-02,1.667332603417798556e-02,-2.896000258450721551e-02
-1.268798756790026280e-02,-3.729149097983068539e-02,8.383553895332211681e-02
-5.047791004611656800e-03,-1.363472049807661936e-02,1.441222492710095976e-02
-1.857432956037071564e-02,-3.073523473206916587e-02,4.932850281067895429e-03
-4.925666909228430118e-02,3.002852368711965425e-02,1.093925142564634162e-02
2.893885878098065995e-02,3.930111162668827735e-02,-7.497499776775402858e-02
-4.879244994699578203e-02,-3.927814138454270576e-02,1.174010671863032033e-02
2.318932389635965097e-02,4.634635285843857061e-02,-3.469017534178809280e-03
1.313042282938569824e-02,-1.965147671232397170e-02,6.584792707803549527e-02
-1.134577691355259307e-02,3.101659237548557574e-02,1.635552398598025259e-02
-2.464246340353284936e-02,-4.316910284840495132e-02,1.199764677297770338e-02
4.350094022490888501e-02,2.583537772723151077e-02,5.307589105776339133e-02
-3.969917257227810470e-02,5.882468050309574981e-02,6.545780471671242169e-03
-2.571276997846231108e-02,-4.934678211461718256e-02,7.828884476845958049e-03
-6.159051689194903340e-02,6.056161475492478213e-02,1.275624955770045081e-02
9.647788088097528428e-03,7.265389441069429466e-02,-2.884617971298757480e-02
-3.223359132550686346e-02,5.603880367204332191e-02,8.868656478747979563e-03
2.655331567946082882e-02,-3.098748300066105077e-02,-4.758332164550962279e-02
-1.657010386233736740e-02,-1.787543092676666806e-02,-1.541780143801830399e-02
3.863874996803191159e-02,7.165606406413296825e-02,-2.974929261357829244e-02
-3.673609052697823091e-02,-6.331411822816967669e-03,-3.186813414544830553e-02
-6.137233321087347954e-02,2.767918476929482480e-02,-2.255440703253012297e-02
-9.531247966584402431e-03,-1.694796230185353567e-02,-6.191988610650282082e-02
-2.700585903551500143e-04,-1.825185896652452636e-02,-2.013288376663261922e-02
-3.959238741893508773e-02,8.882120366339935069e-02,5.335709279009700351e-02
-3.413007919140281787e-02,6.392437217484142620e-03,-2.048469549970781834e-03
-1.322020637432962283e-02,2.288681981029126386e-02,-4.410850892089418496e-02
1.312997512658006447e-02,3.026039933416400929e-02,2.118504549648452320e-02
-9.890891282656702477e-03,4.157711638036511864e-02,2.375222881683650145e-02
5.603088645082199282e-02,8.598844928450111516e-03,3.587729236418477768e-02
7.429059206604549104e-02,9.806530873213164037e-03,8.096459115447275645e-02
-2.756555851688672135e-02,-2.752521645977320033e-02,-9.506634180203571427e-02
-6.458219731206824542e-03,-1.278572136317083715e-04,2.773553229932189043e-02
9.403515824173573623e-02,9.263142316844474866e-02,8.728731612023248043e-03
2.575876066455276212e-02,1.532442420383640924e-02,4.910343680348128181e-02
-2.522505277071746682e-02,-3.359852453198054062e-02,2.323781306055488702e-02
-4.473965755994530058e-02,1.814319300685213274e-03,4.257892595821568399e-02
-3.917013846217406309e-02,1.856397131160603814e-02,-8.430090780680926654e-02
5.513843091201890700e-02,6.675104932835325411e-02,-1.007486854836445292e-04
-6.630394583123526420e-02,4.280007766617802828e-02,3.781186395324179390e-03
-8.687847913890936469e-02,-2.124872021474180986e-02,-6.809329967508429005e-02
6.496283327687658871e-02,5.470622998266669312e-02,-5.413317648750363975e-02
4.425512653281254982e-02,-4.224626048483515368e-03,1.796440226258395889e-02
7.256697956173584207e-03,-2.664186045467875977e-02,5.693300202580569604e-03
3.972658273020238107e-02,5.812764488958001990e-02,1.836559537686161675e-02
4.254103930077639262e-02,-8.713589884140251346e-03,6.609064439448064654e-02
3.357815156525856271e-02,-3.240570752616547812e-02,-1.417629464755491495e-02
4.324347371089574087e-03,2.963140984775905137e-02,1.679134001338306731e-02
6.374776102382316567e-02,-6.205824772035813119e-02,-2.749051880781167023e-02
-2.079263093170123666e-04,-2.507517764422196108e-02,-2.154848660704665898e-03
-3.070356307723305991e-02,2.292623885138109913e-02,-3.128567853328947240e-02
-6.368927621877660400e-03,-8.066682578294032124e-02,-1.728535035957945443e-02
5.654360699753149810e-02,6.631320792031841771e-02,-1.554583382871021872e-02
-1.475169490582579207e-02,-5.746227837199815308e-02,-1.365865802747741505e-02
4.742699190323726444e-02,-3.483651270323104981e-02,1.905589288723927993e-02
1.879890022722203666e-02,4.433966531130789646e-02,-4.914914956713561239e-02
-2.965512227904981354e-02,-9.597952487336717728e-03,-1.998267065741715642e-02
2.540026823108556750e-02,1.797028018552082607e-02,-1.843148715902699283e-02
-3.784764607425190365e-03,3.068530274116709061e-02,1.104699435596470658e-02
5.360094376737532113e-02,4.925541012274387009e-02,-1.501613086960836181e-02
-2.754613812342038628e-03,1.014711174541096071e-02,-1.159549951296779714e-02
9.624013777449351437e-02,3.349319518795382949e-02,-7.354414798252066621e-02
-1.567501151383458944e-03,-4.684254334783011925e-02,-6.959005256611242030e-02
1.196586689462196020e-02,6.158769943579475020e-02,5.110581817325739185e-02
-1.004351624370206954e-02,-3.186119960614623020e-02,-4.097890102546590009e-03
2.931427615098622028e-02,3.574430331110713815e-02,-2.175440906018807560e-02
8.758582999489193666e-03,-1.834987511033601970e-02,-4.374960241721927851e-03
-1.823257134621092054e-02,1.685900803165482631e-02,2.452101305591758429e-02
3.999980428067265170e-02,6.862866170573711511e-02,2.663472038511123866e-02
1.575602579959072685e-02,-4.304664577838231143e-02,2.583549868431971042e-02
5.370064767127731564e-02,-1.660475045317698004e-02,1.859933588012459629e-02
-7.022591622251832429e-03,1.316105576632265774e-02,4.534743939396179008e-02
-2.468534388982027497e-02,1.749360013593664886e-02,1.116685515897199443e-01
-1.806273033146311643e-02,2.740105810915730716e-02,-7.906334679472733218e-02
2.632785273609012516e-02,1.137986938344214410e-01,-5.749233407947753130e-03
2.120180660109815922e-03,-7.063735603526162532e-02,2.424185771856511920e-02
3.115721706206664790e-02,4.361822362526730085e-02,-4.759820955025301920e-02
4.063063808181372090e-03,-2.470250816193735391e-02,-3.585190316827695407e-03
3.601146855050505607e-03,2.989611615389533086e-02,9.550130912840053277e-02
-4.324196827048432806e-02,-4.121458708369780954e-03,3.213988202366223346e-02
-1.887706031093545553e-02,-2.411134966578381764e-02,-1.060372851504628273e-03
-4.309126062391719497e-02,-3.608810497797064042e-03,1.791802333096603750e-02
-5.208352093209475675e-02,2.903544978255742995e-02,-1.712062608245282225e-02
1.702401120347366709e-02,-3.628451731857774282e-02,4.028080347821377111e-02
-4.881669945554931167e-02,-2.712191960076416886e-02,-6.672485866486646544e-02
-4.249451005693641314e-02,-3.730892090302173614e-02,-2.420297926988492637e-02
2.567658720531323588e-02,-1.693484365690412982e-02,-4.778029252261182386e-02
1.330453369899791197e-02,3.819556721295772755e-02,3.167144772674752862e-02
-2.959189955157725139e-04,-1.382027580487481082e-02,-3.052734149956775125e-02
-1.751593068191358710e-02,-1.326374499238369351e-02,-1.440900251075478457e-02
3.410780818308256201e-03,-3.216545255576012258e-02,-1.928201642162294394e-02
-4.841903609961016597e-02,6.676707159802154623e-02,-3.414989870960231932e-02
6.378302640727298578e-02,-2.295481573722507954e-02,6.082259530738700487e-02
-1.939254131517689078e-02,-3.591770249390811159e-02,-3.766527808668760496e-02
-6.538972896070326113e-02,4.216710219372048554e-03,-1.394589417212725550e-02
1.306461211182105217e-02,-2.986677959709757926e-02,6.123331705659645907e-02
-1.407755959097364840e-01,-8.828949476849619685e-03,-2.497225347098872700e-02
-1.352394449535706047e-02,-1.076824409550063144e-02,5.906213185437629576e-02
4.958635162403010610e-02,-9.181530062806099457e-02,3.301510597533223543e-03
-8.591211858498133680e-02,4.604599615584126920e-02,-6.043362354003252446e-02
-1.334095613825377231e-02,3.064009369935298890e-02,-3.227512743307840021e-02
-1.173731192799298828e-02,-1.154806924232729647e-02,-3.681334335471414532e-02
-7.382085562161862236e-03,2.142372306818725661e-02,7.802784562676034347e-03
-1.543559267725074825e-02,5.071894094217828386e-02,-6.042857023689471307e-02
-1.701284810602239975e-02,-5.328346717828962020e-02,-1.520404920670936910e-02
-3.370024339189536117e-02,6.221492149051459364e-02,-7.300201357449578876e-02
5.237326893229584529e-03,-4.401708309574260160e-03,-1.065231872549625945e-02
1.999346109883640490e-02,3.650558627404069598e-03,-2.171861041308589119e-02
-2.219835924481150871e-02,3.306546808447045904e-02,-6.882952387672165717e-02
4.432147552201382013e-02,-2.233966150625948943e-02,2.926239520300410579e-03
-2.404259300706854986e-03,-4.659264911186341424e-03,8.110962074388172738e-02
2.825424744752024972e-02,-9.480709181817247033e-02,-3.059863742209133208e-02
3.930412864069908474e-02,3.025399889114737187e-02,-3.385975910978573922e-02
6.161444976890701614e-02,-2.113763834513562260e-03,1.200559443930574038e-01
-2.711966834894897344e-02,6.488199765847029073e-03,-1.095257942458984814e-02
-6.478581110468134563e-02,-6.592395811210870205e-02,-4.325256687979774084e-02
6.310452572212637765e-03,3.234007031990411563e-02,4.507480373580842817e-03
-2.884645177480259573e-02,-3.501574646916567890e-02,1.022667294355685506e-02
2.314564249632260033e-03,-4.940419398094416520e-02,8.085225732254784636e-02
2.320309805060080666e-02,-3.733881078555823657e-02,-4.963483987159041794e-02
-1.086293128848911244e-01,-8.617650140070936757e-03,2.773957817369555184e-02
3.439479439702661928e-02,4.943570159748185595e-03,-5.081216551223606201e-03
6.531681983623548399e-04,-6.351126790567890312e-02,-1.185773651398496463e-02
5.244421314644934218e-02,1.429608028045626852e-02,-3.901313809312761255e-02
-3.095849879933854423e-02,-7.038407125287521326e-02,-3.684938579176511020e-02
-1.554363963709890634e-02,1.346085299187707758e-02,-8.641999934239938397e-02
-1.757649318156086563e-02,-2.709028304379060281e-02,1.766987459196422972e-02
-4.097215308310749732e-03,3.333360234970963315e-02,3.827228496240251548e-02
-1.105187545812490527e-02,-3.390898028692297672e-02,-6.353436047672644804e-02
-1.725827563706004708e-02,-3.707969559210810145e-02,2.112979752872490551e-03
3.080231538267894434e-02,7.800375823591962354e-02,4.928488050967193973e-02
-1.778469997030179481e-02,-1.989457914081155243e-02,1.765074117492846512e-02
-1.175759454987839597e-02,7.688923042715813116e-02,7.456654092095021946e-02
1.893535618508646219e-03,-1.018376244213564652e-02,6.476706301078803858e-03
1.291759565305322308e-02,-5.303706318173663503e-02,-5.171855724315421038e-02
1.683776248216166394e-02,3.164074513972090635e-02,-3.973740609564604953e-02
-2.774614822189985439e-02,-6.549747335900962808e-02,-4.979485988733580587e-02
-4.452639509291994591e-02,-1.638689974348013154e-02,-6.835358365142472914e-02
-3.017072884628432556e-03,-1.551001173572571709e-02,-5.168241741363858999e-02
-1.244229752015343360e-01,-2.723297682394359640e-02,-4.545074294146015347e-03
8.786301103766604517e-03,2.415655102703710699e-02,3.986137561884575686e-02
3.937671580334689558e-02,7.177029387555571016e-02,-6.197455158132513311e-03
1.006445934774536644e-01,-1.474476437176886444e-02,-3.376259168306222636e-02
-1.815760024345588683e-02,1.445859621883527693e-02,9.422323444677223672e-03
-7.898960933872042900e-02,-2.542854545985919010e-03,2.369305932754636052e-02
-2.352482899889383420e-03,2.101473067425977965e-03,-3.775001754079247013e-02
-3.032570041480942436e-03,-5.317119915058144547e-02,9.036871727901676574e-03
-5.585318602444466762e-02,2.479613326999709211e-02,-2.973438812248631324e-02
-5.926124713944430980e-03,2.722385372521679212e-02,-3.895691707627416123e-02
2.565445303197458685e-02,-1.327192953055720270e-01,3.064763788454095625e-02
-2.854558568742893848e-02,2.752604500641695623e-02,-3.768182894251619064e-02
1.399061602710965913e-02,-1.196049078798052008e-02,3.034160823154139972e-02
8.094315978533218577e-04,-2.460792753117009568e-02,-1.705937464339847207e-02
-3.349988782510838169e-03,-1.612755163894348184e-02,3.431483736744572050e-02
-2.047802057821595384e-02,-2.188075450280166367e-02,3.349328144303341526e-02
4.656835268978070513e-03,-6.383052668562208543e-02,1.422751613353533465e-02
8.025915730225000044e-02,-1.741626822422413789e-02,-6.289439177715253071e-02
-3.767037273956114294e-03,-4.412585213119402799e-02,1.097167278879332825e-01
-6.136122126817988333e-03,2.789701342182243290e-02,2.873791104258296286e-02
-2.019730492843079331e-02,-4.906249092944491019e-02,-3.622146169655671155e-02
-1.386197023560188819e-02,1.595787617098615163e-02,-2.342649203821059456e-02
6.074624336844123423e-02,1.136187324887825111e-02,-5.127034994207541746e-02
5.567482972016343790e-02,2.353281492812362916e-02,2.448326807276562239e-02
3.746603805048656644e-02,-1.773310809457181655e-02,-1.190252390208747582e-02
4.238162466890227353e-02,2.689562472850335218e-03,-1.873410196672296857e-02
6.146697609794909284e-02,-8.059250549530513896e-02,-2.053434547678118643e-02
6.552620746582429878e-02,1.693153959146819626e-02,-3.750913332427976282e-02
-1.845001348162237167e-02,4.325615305878281844e-05,-4.667988778630645721e-03
-3.251736238627000314e-02,-1.836823027224776528e-02,-3.806646406125610040e-03
9.146538274273720986e-03,-5.582941437086980097e-02,1.987007826171291805e-03
-1.891593871910163260e-02,-3.026086884534888791e-02,2.256397986379857223e-02
-9.936534800471907847e-03,4.659650834667272701e-02,-5.017997740294623948e-03
-1.133082949256595910e-02,9.115377304296184632e-03,5.167097521221052786e-02
-2.609137273599303544e-02,2.321265494099311946e-02,-1.009630550873910800e-02
-1.040094926907211836e-02,5.119286725217917638e-02,-1.450909733248215497e-02
-7.797587414956731744e-02,4.622622944628999170e-02,1.533201830450662759e-03
3.553363596864950180e-02,-1.411478896444475113e-02,4.372877828825119488e-03
7.019484791763735618e-03,6.753940161604661541e-02,-4.088516222391001126e-02
-2.942198489075033979e-02,-3.825452310852228959e-03,1.423663320649549285e-02
9.842301376227231141e-03,-3.232018981022502513e-03,-3.687073820598088525e-02
-9.605986092361622208e-02,-7.954522401894070435e-03,6.068048652311443941e-02
5.517234621484051749e-02,4.012329144574778433e-02,5.281146207977255314e-02
7.509229611797717252e-02,-3.508985138044498631e-02,-6.619686010942924144e-03
1.068233779831168767e-01,-3.714542777000660358e-03,2.375017971741324226e-03
-3.460957985682649313e-02,-6.488422997024189537e-03,-4.228382532754635520e-02
-9.598082100235568945e-03,-4.058636391669704496e-02,-3.318936752524470624e-02
6.326118203186187339e-02,-4.130511507480444378e-02,-4.206006537917640620e-02
-9.876600000311919897e-03,3.902084263290633848e-02,-6.657176062643878345e-02
3.937337520510707234e-02,8.116693259011452388e-02,-1.868930800095266326e-02
3.286297998500827683e-02,7.210995928899742446e-02,-3.835349669507271547e-02
-1.561763140691264755e-02,-1.167648160316740735e-02,5.394596811179337009e-02
-1.254714951668818301e-01,3.996658597138049579e-02,-8.187982135839336206e-02
2.281477657234444456e-02,5.410509271351751810e-03,-4.924224334483646992e-02
-3.364411821616530157e-02,-2.722951748843919009e-02,-2.816365066727928232e-03
4.577269075839819623e-02,-3.425301533415759520e-02,1.603213835826479763e-02
3.849400291512755645e-02,-7.596753427489533195e-02,-2.904022282442796088e-02
6.177046253938710263e-02,-2.352235622313465779e-02,-1.666594021233188186e-02
4.952685796031541104e-02,-4.087939831864432355e-02,-3.283447142059586071e-02
-3.875680770368226946e-02,-4.384069777861922951e-02,-2.772883592964925023e-02
3.176425651203831219e-02,-6.206808402010094428e-02,3.021418607921227267e-02
8.632778544647307095e-02,8.935002344820492520e-03,4.179339064615480298e-02
-3.603490848051484757e-02,7.095096288785066041e-02,4.051258233197882475e-02
3.098276534437343147e-02,-6.115914253004272466e-02,2.202016826704979169e-02
-1.184281979494882300e-02,2.147813262485530339e-02,-4.070431981946842637e-02
1.019350228082392847e-02,3.621396934705746473e-02,-1.119322400296596243e-02
-6.121026362147739819e-02,-1.017600579446964124e-02,-5.893405983160988210e-02
1.387061214427917806e-02,5.083990050485984874e-02,2.453368774426024218e-02
3.690809358967976628e-02,-2.319216092321744679e-02,5.761513634579839421e-02
-2.881479435790066171e-02,7.326740026657035942e-03,-1.545927982719848444e-02
-6.738164182677933156e-02,2.401345854075691288e-02,3.530023605207367049e-02
-4.444300559602634704e-02,-3.752035744064726591e-02,-6.065002352182575357e-02
3.978865911561512564e-02,-4.121683565462978815e-02,4.865975057600807618e-03
1.917048984388729574e-02,6.418146943833812762e-03,1.088261713148925940e-02
-5.409745510703251742e-02,2.413582859501879271e-02,2.178955245152575538e-03
-6.288559296750829974e-02,-3.613289405663564369e-03,-8.584810143602919497e-02
1.973048986668657703e-02,4.303650338065169619e-03,-6.454581743485322820e-02
2.614248434539135496e-02,-1.856148780821444133e-02,3.698667264676637478e-02
-5.368657731222715307e-02,-8.909591300154430515e-02,-5.444028061481991088e-02
-3.147374057558022936e-02,4.915189158613161857e-02,-1.361739839088110283e-02
-2.755201163612421358e-02,8.066225401565205178e-02,3.861186198984560558e-02
-3.148151252331976135e-03,2.451859317034793193e-02,3.093036963942828038e-02
-1.203504505167764249e-02,-1.166214381949923565e-02,-1.018959338663868661e-02
1.079904634627926359e-02,-4.724857968853591467e-02,-7.626024309920293766e-03
1.315875460860598499e-02,-3.377654374437328438e-02,-3.004459832085637147e-02
-4.230721696443319468e-03,1.560502555413047394e-02,3.167959278390714006e-02
-1.574742396218725346e-02,-1.065089862937002550e-02,-8.111518643649284765e-02
3.924068863690563513e-02,9.501922134562060598e-03,-1.000980170444320805e-01
-5.114209380415556117e-02,6.246045750975728200e-03,-1.340508145090825443e-03
-7.892862861528646135e-02,-1.291303486426125316e-02,-4.095171459787828872e-02
-4.698518962633795103e-04,-1.247006161058580170e-02,2.529444822714759303e-02
-1.576222665310753404e-02,5.411690414390236958e-02,-3.061980434809306179e-02
2.974579981845510909e-02,1.093205882048686392e-02,2.702930189693245142e-03
4.781259944868609946e-02,3.166419301092177757e-02,2.068422225323609392e-02
3.247518056715682083e-02,-7.852492775060971111e-03,-6.279749719892627202e-02
-2.040823863891006937e-02,-1.063653005766276687e-02,1.481047706357348746e-02
-4.346138829662116870e-02,-1.313531593220326581e-02,1.970361357015642731e-02
-3.523889610099028430e-02,-9.407801521586807436e-02,-3.099339312463740906e-02
-1.143486449987298099e-02,3.328560667817388047e-02,-9.004161447268251017e-02
-1.896789976625645443e-03,7.376524211670298925e-02,2.465430673968893593e-02
1.699660578821975826e-02,-5.442067301354365809e-04,3.764428282448266383e-02
-4.043324990165037686e-02,4.526928389700357602e-02,-2.225152505402904629e-02
2.419400925806748041e-03,2.721109763071666299e-02,-1.694375090889616020e-02
-3.261139056613962528e-02,4.760955194683414576e-02,-1.112574953327464915e-02
-4.665424401642753391e-03,2.924821477503623465e-02,2.672533116522618143e-02
8.272345970567540618e-02,-1.381305848038264818e-02,7.923464274290258763e-03
-7.350669239736993057e-03,6.676547371332974823e-02,1.821331613924501158e-02
-3.755625178114158080e-02,-8.608782783588847173e-03,-4.836619113759513255e-02
2.785649209886480182e-02,-2.440487851673077760e-02,1.035467569394542091e-02
9.296798174599171793e-02,2.578632210520177478e-02,5.122696476524508241e-02
-9.234222897341838598e-02,3.958001371068573665e-02,-2.909188748477185490e-02
-4.386603782889395009e-02,2.804946788759046360e-03,5.092964780733855168e-02
-6.784847458379072993e-02,1.489511792109665493e-02,3.276790408943894978e-02
6.759927169585600026e-02,-5.055546442697160352e-03,2.372654922127087965e-02
4.636889984666195397e-02,-5.431994817661295327e-02,2.342993531612194355e-02
-9.182006785580605623e-02,1.828592348421697808e-02,-4.106662767557435478e-02
-1.269012974989055034e-02,7.488758130376281519e-02,-6.016892950650659655e-02
-6.208289498312013349e-02,4.859613847131816905e-02,2.734370748394161429e-02
1.623823156216166672e-02,5.218753227463143740e-02,6.909734858173437189e-02
-5.789235087579075456e-02,-2.528302481938730917e-02,4.574747796808929096e-02
9.991068599837828190e-02,-1.573404083497837933e-02,5.541060456058986838e-02
-6.457000239104467021e-02,9.566285106178257919e-03,6.732098235387247442e-02
-7.674426730343292258e-02,-3.618284869872050863e-02,4.937930620838593306e-03
-3.085008238104025233e-02,2.689309124768236511e-03,-3.077996822179503503e-02
9.812683675002801045e-03,-2.261842519342314659e-02,-2.582221545119384176e-02
1.930640827556148742e-02,5.513909436873154837e-03,-1.718969305967252975e-02
1.271618154724521443e-02,-1.821340746218982204e-02,-2.946608674160082486e-02
4.050924520330027867e-02,5.902067329105219889e-02,8.343017704906056584e-03
2.980543153961595637e-02,5.364010506790011461e-05,3.721722876610731451e-02
-5.424861538086518664e-02,7.169230983649589606e-02,8.630575199354724447e-02
4.706720899961629699e-03,3.618057749923392526e-03,-3.784305626206747875e-02
-3.548910747980158625e-02,-1.694994085893335861e-02,-9.168622406692019874e-03
3.869055899476927379e-02,-3.628087656044913512e-02,1.500882850589423979e-02
-5.437585928431161453e-02,-4.071034541132036860e-02,4.582660236819166566e-02
5.439007350030569676e-02,5.580460959358868149e-03,1.307998444241166146e-04
-6.357200565401951303e-03,-3.916989859513737154e-02,-2.518950181054648105e-03
4.840304428924775172e-03,-1.602791679146581619e-02,1.376017508834968990e-02
3.596214196162218074e-02,1.204777666592652362e-02,-6.577383683342355458e-02
3.759856282886315376e-02,5.992865385206812279e-02,1.921492664262279635e-03
-5.671611426476839968e-02,1.440171303937001421e-02,5.380246517826200309e-03
3.405239869313220202e-02,3.599438599682330819e-02,9.664296498983644679e-02
-5.901140588888206112e-02,-8.421204467385300443e-03,5.847131761290944030e-02
1.472764051943792341e-01,2.382797882040585402e-02,5.804761441812926470e-02
3.088386073846775305e-03,-6.234939255124156976e-02,-5.669777114927539684e-03
3.356931502435551301e-02,-6.062999155429739731e-03,3.264585209128961080e-02
3.283752079827904902e-02,-2.018378640873520757e-02,-9.768909000538289478e-02
-2.591536310768785892e-02,4.425410352702100619e-02,-8.242896055353218787e-02
-2.394403796115535804e-02,-6.891390963278670213e-03,2.222299188949656765e-02
-2.783202511026193135e-02,5.719781406001175211e-02,3.504648290232611346e-02
-5.207650282198558050e-02,1.608038559045758820e-02,2.406679872794534672e-02
-2.169967864040374395e-02,-5.069409659481950020e-02,-1.596766704459217506e-02
8.060736419303146660e-03,-4.593572700185072355e-02,-1.042886066851742149e-01
-4.988874925414762268e-02,1.878659880981836281e-03,1.228342309648190883e-01
1.462401453724439249e-02,7.871603105926298569e-03,4.734534508658756052e-02
-9.713718565364379276e-02,-1.729746905246285632e-02,-2.578145086688176171e-02
-2.323009675004710645e-02,1.688452046041696852e-02,3.555927535668692435e-02
-1.796093637774843349e-02,-1.166025482824771115e-01,3.853916062862786096e-02
-3.719004268025093152e-02,-1.002807616227620463e-01,1.133204122269996367e-02
-2.918434335843058530e-02,-2.490914946937580754e-02,-1.298199586598545660e-03
6.408729724436509206e-03,-2.075218458305924316e-02,1.345142801768397199e-02
4.145363787849029591e-02,2.232165079770737776e-02,-2.936545247112289439e-03
-7.088836334000965522e-02,-3.383844399296970229e-02,4.582509372111106399e-02
7.910890118859706388e-02,-2.215268412477486466e-03,-9.288147644768145195e-03
4.609597978921416844e-02,4.267520948619337590e-02,-7.369270861919713367e-03
1.510610947248635164e-02,8.230343227294133202e-02,-1.442472160286047307e-02
-1.718364608614438710e-02,-7.220762001064991165e-02,2.810094587172375091e-02
-2.688463789600662075e-03,-8.222745004552221848e-02,6.299691756563495504e-02
-3.578471247536213484e-02,-2.450198131999255236e-02,-1.154955227810260283e-02
1.905909189622547253e-02,-2.352499557018046875e-02,-4.625480869977419141e-02
3.888830250451662945e-02,7.374546909953354212e-02,2.473767453519244361e-02
-2.743047313509089022e-02,3.677556239856062670e-02,3.234864857735079979e-02
3.713523542612844758e-02,-2.751025719632983757e-02,7.795272564685269906e-04
-1.207083735094849428e-03,1.858556418158505141e-02,-1.008725333866522349e-02
-2.683326310350524907e-02,2.163519297627529425e-02,-4.035206471397435879e-02
4.009790856216187416e-02,3.733682731719892983e-02,-4.963552133427379803e-03
2.076823089206248155e-02,2.925535435331436118e-02,3.843994964625317701e-02
2.486869109364109667e-02,1.459426654463165038e-02,5.312330633785847939e-02
3.620692011485376199e-02,5.860031632753693979e-03,3.170953085775656682e-02
5.985790197181631300e-02,5.500808881330800093e-02,-9.862347832021479965e-02
1.918236675429699223e-02,-5.913479484780967410e-02,-8.953072484689099039e-03
7.706942084037911311e-02,3.278829832734119626e-02,-1.021331533359909512e-02
-2.432530233213526377e-02,1.863650743314396044e-03,-6.662324838517956482e-02
2.083925250842361826e-02,1.102360445860960103e-02,7.424725442729153413e-02
2.663977796532034439e-02,8.115755676944344521e-02,1.953664467760863818e-02
4.162204472564113786e-03,-1.401972762449248296e-02,-2.286417009530738315e-02
5.389715331175790741e-02,4.485283838803584382e-03,-5.494170656768011113e-02
3.110420139160377517e-02,3.708449573142610228e-02,-5.512449251312082077e-02
5.798587656522065370e-02,2.344528759363103537e-02,3.042336292558476402e-02
3.471460471467562731e-02,1.279015366148543997e-01,1.111990214887131206e-01
1.667841380251935610e-03,3.067415436480751267e-02,-2.176399927226551137e-02
-2.464307902685735144e-02,-2.514418626395656386e-02,4.007619958240877384e-02
3.819417923699081063e-02,-3.615518455382014940e-02,-3.943648995014271269e-02
-7.895187467584344199e-03,8.479164328209345958e-02,-3.515687130561034185e-02
-1.356779233613687654e-03,1.890073136292386505e-02,7.343247425081447788e-02
-1.906436238914637274e-02,-2.318044868220757102e-02,4.982170575340710145e-02
4.078017221369460710e-02,-6.177014507713160345e-03,5.414872656562373654e-02
-1.291402798902326326e-03,2.261983156877584583e-02,1.458451097483110664e-02
-5.642619520794571464e-02,5.534855503676856803e-02,-2.988641509973701503e-03
-5.942307804086165157e-02,-1.814011816256860116e-02,8.779312931044738755e-02
4.215286050576418087e-02,-2.352444166553247645e-02,-3.923671222777803252e-03
6.226595122883311906e-02,2.287806160286047150e-02,1.718442728035146291e-02
6.109536849165490141e-03,3.676709623227291529e-02,1.013593051102880047e-02
-1.375826595342535645e-02,-2.354039074583567925e-02,4.173177799227506253e-04
-3.667645032373262337e-02,-6.757604278908856121e-02,-9.164228569788428203e-03
9.826211630043953094e-02,3.578381295094196918e-02,5.947131401580148941e-03
-7.328988470463778868e-03,1.640123955871045439e-02,-4.682090284783479300e-02
5.385873008686954677e-02,1.168162498070164992e-02,-7.116090293467748629e-02
5.354498142925719767e-02,-2.153100723083710769e-03,1.407448909792160564e-02
5.604721814913642131e-02,2.478952166998864282e-02,5.214263294647824426e-02
3.649391505995375207e-02,-4.808347280247689953e-02,-2.156629558224938334e-02
7.394673062458111124e-02,-3.106894098238571419e-02,-2.368236326509289003e-02
1.158326632394885286e-01,-1.246750814126323520e-01,-3.698363339032668257e-02
-2.747054645356833760e-02,1.388666909786332414e-02,3.199058123044264818e-02
-2.188275818398471156e-02,-3.354195734796693723e-02,-2.950836799875610275e-03
2.696365053601824935e-02,-2.002828882814798161e-03,1.396191504538347268e-03
2.244974220324259459e-02,-8.955335521776751351e-02,1.506558080061639812e-02
-5.949448515363775503e-02,8.981219182845298285e-03,-5.920481418787392619e-02
1.142725775820617289e-02,4.565579335703326413e-02,-6.128711922050754379e-02
-1.707878581997672798e-02,3.799674193612692652e-02,9.094552172493397535e-02
-4.509995286315950092e-02,7.351535923884529311e-02,-9.672912653121540014e-03
-1.830939441572251164e-02,-2.869009092322525115e-02,-5.344355926098426357e-02
-7.383083727981928348e-04,-5.684000324211603561e-02,-3.504226550552470842e-02
-1.795148216837142915e-02,2.749027585228774190e-02,-1.871594374400345831e-02
-5.363669057876170598e-02,-1.371628343600115978e-02,-2.389528005675464056e-02
2.835600444985564295e-02,4.263408226902672127e-02,-5.627216753085970830e-02
3.724283242428689383e-02,5.454993725737671689e-02,6.144104753106222061e-02
1.688018616837818893e-04,-7.508720912694481385e-04,4.414718731706698124e-02
-1.260375712555987862e-02,5.441016085127358543e-02,-9.682414320257357390e-03
1.869936644414472646e-02,-1.478050704785299633e-03,-6.246406461366083018e-02
1.214364433482494413e-02,-1.105674333417531185e-01,4.491904512463732596e-02
-2.436252214125142479e-02,-5.697474437609573172e-02,-2.026896305029317683e-02
-1.850966457001399987e-02,8.364217439185280337e-03,-5.205621360571881240e-02
6.175351199709044198e-02,-2.347619298445073263e-02,-5.571786565779513617e-02
9.598057737949147739e-02,-2.586965982978611800e-02,-4.114116889282930234e-02
5.832219855588514912e-02,2.568740135412231340e-02,1.727126011261984756e-02
-1.886952560428906307e-03,2.304563195066702819e-02,-7.094073051993315948e-02
-4.992887555097656055e-02,-2.042485303468885571e-02,-1.470139331537894008e-02
-1.360201477112096130e-02,1.996419574625658139e-02,3.304481815112477600e-02
3.379020334897494399e-02,-8.390082966015889598e-02,4.849447649968177676e-02
7.392990196389057078e-02,-4.198081518709773780e-02,-6.741847575498834122e-02
4.085388726940963194e-02,1.670388736644069089e-02,-2.840925001724637147e-03
-3.070756616647469378e-02,-5.231706116080957897e-02,9.513770228300927334e-02
-5.753834254472432047e-02,2.794935533757466478e-02,-8.325158076992952849e-02
-1.285407400611492980e-02,-2.223855290311576791e-02,-6.335716743320379991e-03
-3.381945082435480450e-04,-5.263807557342555649e-02,1.189723322163226387e-03
-1.630989432717930288e-02,-2.833418873441594099e-02,6.982027640091959496e-03
7.313054462378183740e-03,-1.486705528068869159e-02,4.140702604642255980e-02
-4.239433461074868306e-03,-2.678422667224924017e-02,5.022325374419728955e-03
-9.015481201647565718e-04,1.923818707475273559e-02,-2.530769695388966276e-02
-6.075785502275037747e-03,2.670176787118336628e-02,-2.293856903404332959e-02
-4.661961060716964672e-02,-6.329705403083185633e-02,-8.957960598606273112e-03
-5.356350992991209398e-02,7.923245968285866359e-02,2.740038943537653413e-02
-2.933713792246541927e-03,-1.050202252900237915e-01,1.026433373611466450e-02
1.664810425708206781e-02,-5.890648588146309844e-02,-7.397328001484294868e-02
4.725176169599559425e-03,-2.464020308488249628e-03,-4.498436893677059409e-05
1.081195942350488860e-02,8.115141767491599115e-03,2.237044457837359269e-03
-3.954343245254926531e-02,-1.471520005060348224e-03,-2.217996910398282659e-02
7.807685169296186417e-03,-1.877268614242700792e-02,2.262291171939621870e-02
-7.127132950919662369e-02,4.375375362945641694e-02,2.738291005323160651e-03
-7.335986201258085093e-02,3.889028224728191541e-02,-7.948844905828349183e-02
9.336978573951348892e-02,5.895934053082059478e-02,-2.978228795841244073e-02
-4.335498740370513290e-03,1.544030301463937029e-02,-5.579410439270493169e-03
4.514911745135542775e-02,2.333593954341056653e-02,4.901454180877087147e-02
-2.987551491985429922e-02,1.020662791315270039e-02,7.459737410894347331e-02
-5.298913852678741564e-03,-2.864621458918227906e-02,-2.700592819844680609e-02
1.121424754761619902e-02,3.722401925547023926e-02,3.742477155890702387e-03
-3.134697191042985342e-03,3.335088561629482445e-02,2.612898973419089735e-02
-1.236396610287916753e-02,4.039767699316573063e-02,6.819736211805335277e-03
-3.844676973333669562e-02,-2.037831060397329863e-02,7.305733574189358405e-03
4.200546026396372729e-02,9.189920187374990557e-02,-2.268021983161644384e-02
9.969500394870992044e-02,4.442867897073593531e-02,7.048119704060677726e-02
-2.248779558211970800e-03,7.275232275537372832e-03,8.710549764884750745e-03
-3.894612366536812781e-02,-5.320690730206921720e-04,-3.273225294695727289e-02
1.369386435854918864e-02,-3.731397091663958554e-02,5.635855207749193227e-03
-2.774027858515110134e-02,2.929362852488094637e-02,4.152501197613543693e-02
-2.168488981477729918e-03,1.028701091424873886e-03,3.606626911591283985e-02
-2.911718819627080387e-02,-8.181281797220385510e-02,7.107938062282536176e-03
2.142813217833130016e-02,7.463977295837941062e-03,5.454709949558961268e-02
3.350317475536256778e-02,3.168212164061365993e-02,2.657068508311035207e-02
-4.535344723742167072e-02,4.538165123287303537e-02,1.358605184765679895e-02
8.476164444437633838e-02,1.202308505993768400e-01,-1.041457442341767459e-01
4.268979072672754969e-03,-2.218407089798975565e-02,-4.012597253544276238e-02
2.939321320860055833e-02,-2.042940828846941809e-02,7.862487676474792797e-02
3.581866510074990795e-02,-4.209811338634813355e-02,1.337768384733867277e-02
4.392493376480948765e-05,-3.805283737254802905e-04,2.536981996733159769e-04
-9.259765549802553841e-03,-1.967571980579322852e-02,8.259378335724200382e-02
-2.779811200622464562e-02,1.221081278873039147e-02,-5.724652281035430557e-02
-3.124711292637132390e-02,-9.115442109928396540e-04,4.244608975547303070e-02
